timestamp,pressure,temperature,altitude,ASMaccelX,ASMaccelY,ASMaccelZ,ASMgyrX,ASMgyrY,ASMgyrZ,ICMaccelX,ICMaccelY,ICMaccelZ,ICMgyrX,ICMgyrY,ICMgyrZ,magX,magY,magZ,ICMtemp,lat,lon,altMSL,altEll,velN,velE,velD,epochTime,satellites,gpsLockType
1205,1001.4202,23.0700,98.9429,-0.0260,0.0100,1.0140,0.7000,-1.9600,-0.4200,-0.1149,-0.0383,9.9455,0.0053,-0.0096,0.0032,16.5000,27.9000,22.6500,25.8402,401294976.00,1515464064.00,390737536.00,2018432000.00,-1824796820,1105008131,453138611,133789126,73,75
1230,1001.4038,23.0700,99.0804,-0.0120,0.0070,1.0120,0.9100,-1.6800,-1.6800,-0.1867,0.1341,9.7779,-0.0043,0.0000,0.0021,16.2000,26.7000,22.9500,25.6006,401294976.00,1515464064.00,390737536.00,2018432000.00,-1824796820,1105008131,453138611,133789126,73,75
1255,1001.4038,23.0700,99.0804,-0.0230,0.0090,1.0160,1.1200,-1.1900,-0.4900,-0.1676,-0.1053,9.8210,0.0043,-0.0032,-0.0032,17.8500,26.2500,23.1000,25.9840,401294976.00,1515464064.00,390737536.00,2018432000.00,-1824796820,1105008131,453138611,133789126,73,75
1285,1001.4346,23.0700,98.8219,-0.0200,0.0090,1.0150,0.8400,-1.6100,-0.4900,-0.1101,0.0287,9.9216,0.0000,-0.0043,0.0074,17.1000,28.0500,21.7500,25.9361,0.00,0.00,-17000.00,0.00,0,0,0,1615075258,0,0
1311,1001.4346,23.0700,98.8219,-0.0130,0.0070,1.0160,1.0500,-1.3300,-0.2800,-0.1101,0.0766,9.8689,0.0032,-0.0011,0.0053,16.2000,27.9000,21.4500,25.8402,0.00,0.00,-17000.00,0.00,0,0,0,1615075258,0,0
1336,1001.4172,23.0800,98.9675,-0.0080,0.0070,1.0130,0.8400,-1.6100,-0.2100,-0.1484,0.1197,9.8737,-0.0117,-0.0021,0.0043,16.0500,27.3000,22.3500,25.9840,0.00,0.00,-17000.00,0.00,0,0,0,1615075258,0,0
1381,1001.4343,23.0800,98.8239,0.0000,0.0130,1.0160,1.2600,-0.9800,-0.0700,-0.1389,0.1197,9.8450,0.0053,-0.0074,0.0043,16.0500,27.3000,21.0000,26.1757,0.00,0.00,-17000.00,0.00,0,0,0,1615075258,0,0
1407,1001.4343,23.0800,98.8239,0.0000,0.0090,1.0140,0.8400,-1.6800,0.0000,-0.0958,0.0575,9.8210,-0.0064,0.0011,0.0064,16.5000,27.9000,21.9000,25.9361,0.00,0.00,-17000.00,0.00,0,0,0,1615075258,0,0
1431,1001.4111,23.0900,99.0188,-0.0110,0.0090,1.0160,1.1200,-1.1900,0.0000,-0.1197,0.0144,9.8928,0.0032,-0.0032,0.0074,16.9500,27.9000,22.9500,26.0319,0.00,0.00,-17000.00,0.00,0,0,0,1615075258,0,0
1458,1001.4111,23.0900,99.0188,-0.0150,0.0100,1.0150,0.8400,-1.6800,-0.0700,-0.0862,-0.0335,9.8928,-0.0053,-0.0043,0.0053,16.9500,27.9000,22.2000,25.6006,0.00,0.00,-17000.00,0.00,0,0,0,1615075258,0,0
1482,1001.4292,23.0900,98.8670,-0.0170,0.0080,1.0140,1.0500,-1.4000,-0.1400,-0.1245,-0.0622,9.8928,-0.0011,0.0000,0.0064,17.8500,26.5500,21.3000,25.9361,0.00,0.00,-17000.00,0.00,0,0,0,1615075258,0,0
1507,1001.4292,23.0900,98.8670,-0.0180,0.0080,1.0130,0.9800,-1.4000,-0.1400,-0.1580,-0.0287,9.8737,-0.0011,-0.0021,0.0021,16.2000,28.2000,22.2000,25.9361,0.00,0.00,-17000.00,0.00,0,0,0,1615075258,0,0
1532,1001.4336,23.1000,98.8301,-0.0150,0.0080,1.0150,0.9800,-1.4700,-0.1400,-0.1676,0.0144,9.9120,-0.0021,0.0032,0.0074,16.5000,27.9000,22.2000,25.8402,0.00,0.00,-17000.00,0.00,0,0,0,1615075258,0,0
1557,1001.4336,23.1000,98.8301,-0.0090,0.0100,1.0150,0.9800,-1.4000,-0.1400,-0.1389,0.0479,9.9072,0.0000,-0.0043,0.0000,16.6500,26.2500,22.0500,25.9840,0.00,0.00,-17000.00,0.00,0,0,0,1615075258,0,0
1582,1001.4712,23.1000,98.5141,-0.0090,0.0070,1.0140,0.9100,-1.4700,-0.0700,-0.1245,0.0335,9.8785,0.0064,-0.0032,0.0074,16.5000,28.2000,21.9000,25.8402,0.00,0.00,-17000.00,0.00,0,0,0,1615075258,0,0
1609,1001.4712,23.1000,98.5141,-0.0080,0.0060,1.0140,0.8400,-1.5400,-0.2100,-0.1724,0.0814,9.9407,-0.0064,-0.0011,0.0000,16.5000,28.6500,20.8500,25.9361,0.00,0.00,-17000.00,0.00,0,0,0,1615075258,0,0
1634,1001.4363,23.1000,98.8075,-0.0100,0.0110,1.0140,0.9100,-1.5400,-0.2100,-0.1101,0.0239,9.9503,-0.0138,0.0085,0.0053,17.2500,27.9000,21.1500,25.9840,0.00,0.00,-17000.00,0.00,0,0,0,1615075258,0,0
1661,1001.4363,23.1000,98.8075,-0.0110,0.0120,1.0140,1.1900,-1.0500,-0.2100,-0.1053,0.1149,9.9024,-0.0032,0.0000,0.0181,15.4500,27.9000,21.9000,25.7923,0.00,0.00,-17000.00,0.00,0,0,0,1615075258,0,0
1686,1001.4221,23.1000,98.9265,0.0000,0.0100,1.0120,0.9800,-1.5400,0.3500,-0.0670,0.0287,9.9168,0.0074,-0.0032,0.0106,16.5000,28.9500,21.9000,25.9361,0.00,0.00,-17000.00,0.00,0,0,0,1615075258,0,0
1711,1001.4221,23.1000,98.9265,-0.0050,0.0100,1.0160,1.1900,-1.1900,0.8400,-0.0958,0.0527,9.8785,-0.0053,0.0043,0.0064,16.2000,27.4500,21.9000,25.9361,0.00,0.00,-17000.00,0.00,0,0,0,1615075258,0,0
1736,1001.4241,23.1100,98.9101,-0.0010,0.0080,1.0150,0.8400,-1.6100,0.0700,-0.1341,0.0479,9.8785,0.0021,-0.0053,0.0085,16.9500,27.9000,20.8500,25.9840,0.00,0.00,-17000.00,0.00,0,0,0,1615075258,0,0
1761,1001.4241,23.1100,98.9101,-0.0080,0.0090,1.0160,0.9800,-1.4000,0.0700,-0.1006,0.0192,9.8593,-0.0096,0.0053,0.0096,18.0000,28.6500,22.2000,25.8402,0.00,0.00,-17000.00,0.00,0,0,0,1615075258,0,0
1786,1001.4795,23.1100,98.4444,-0.0110,0.0070,1.0130,0.9100,-1.5400,0.0000,-0.1341,-0.0479,9.8928,0.0011,-0.0021,0.0064,16.0500,27.7500,20.7000,26.1277,0.00,0.00,-17000.00,0.00,0,0,0,1615075258,0,0
1813,1001.4795,23.1100,98.4444,-0.0190,0.0090,1.0140,0.9100,-1.6100,-0.1400,-0.0910,-0.1053,9.9264,-0.0053,0.0011,-0.0011,17.1000,27.3000,23.1000,26.3194,0.00,0.00,-17000.00,0.00,0,0,0,1615075258,0,0
1838,1001.4583,23.1100,98.6229,-0.0210,0.0090,1.0140,0.9800,-1.5400,-0.2100,-0.1484,-0.0144,9.9647,0.0011,-0.0053,0.0043,15.4500,27.9000,22.9500,26.1757,0.00,0.00,-17000.00,0.00,0,0,0,1615075258,0,0
1864,1001.4583,23.1100,98.6229,-0.0210,0.0090,1.0160,1.0500,-1.4000,-0.2100,-0.1676,0.0096,9.8785,-0.0011,-0.0021,0.0000,17.4000,27.7500,21.0000,26.3194,0.00,0.00,-17000.00,0.00,0,0,0,1615075258,0,0
1888,1001.4297,23.1000,98.8629,-0.0110,0.0110,1.0160,0.9100,-1.4000,-0.2100,-0.1293,0.1389,9.9024,0.0011,0.0000,0.0043,17.4000,28.5000,22.0500,26.1277,0.00,0.00,-17000.00,0.00,0,0,0,1615075258,0,0
1914,1001.4297,23.1000,98.8629,-0.0050,0.0110,1.0140,0.9100,-1.5400,-0.2100,-0.1389,0.2107,9.9407,-0.0021,0.0011,0.0053,17.4000,27.7500,22.3500,25.9361,0.00,0.00,-17000.00,0.00,0,0,0,1615075258,0,0
1939,1001.4419,23.1100,98.7603,0.0040,0.0100,1.0150,1.0500,-1.5400,-0.0700,-0.0910,0.1724,9.9216,0.0011,0.0021,0.0117,16.6500,26.5500,22.0500,26.1757,0.00,0.00,-17000.00,0.00,0,0,0,1615075258,0,0
1966,1001.4419,23.1100,98.7603,0.0060,0.0060,1.0150,0.9100,-1.6100,0.0700,-0.1053,0.0718,9.9311,0.0000,0.0000,0.0096,17.2500,26.4000,22.9500,26.1757,0.00,0.00,-17000.00,0.00,0,0,0,1615075258,0,0
1990,1001.4526,23.1200,98.6700,0.0000,0.0050,1.0150,0.9800,-1.4000,0.1400,-0.1197,-0.0670,9.8833,-0.0021,-0.0032,0.0032,16.6500,29.2500,21.7500,26.1277,0.00,0.00,-17000.00,0.00,0,0,0,1615075258,0,0
2015,1001.4319,23.1100,98.8444,-0.0150,0.0080,1.0150,0.9100,-1.5400,0.0000,-0.0862,-0.1149,9.9072,-0.0064,-0.0053,0.0000,16.5000,28.2000,21.4500,26.1757,0.00,0.00,-17000.00,0.00,0,0,0,1615075258,0,0
2040,1001.4319,23.1100,98.8444,-0.0220,0.0080,1.0160,0.9100,-1.4700,-0.0700,-0.1389,-0.1867,9.9024,-0.0032,-0.0011,0.0043,17.4000,28.5000,22.3500,26.1757,0.00,0.00,-17000.00,0.00,0,0,0,1615075258,0,0
2065,1001.4395,23.1100,98.7808,-0.0270,0.0130,1.0160,0.9100,-1.4000,-0.2800,-0.1724,-0.0718,9.8737,-0.0074,-0.0021,0.0021,16.5000,27.9000,22.2000,25.9361,0.00,0.00,-17000.00,0.00,0,0,0,1615075258,0,0
2090,1001.4395,23.1100,98.7808,-0.0210,0.0130,1.0170,0.9800,-1.4700,-0.2800,-0.1149,0.0144,9.9695,-0.0074,0.0000,0.0021,16.5000,27.9000,22.6500,26.1757,0.00,0.00,-17000.00,0.00,0,0,0,1615075258,0,0
2115,1001.4104,23.1100,99.0250,-0.0130,0.0100,1.0140,0.9100,-1.5400,-0.2100,-0.1820,0.0479,9.9551,0.0117,-0.0074,0.0106,16.2000,27.4500,21.4500,26.1277,0.00,0.00,-17000.00,0.00,0,0,0,1615075258,0,0
2140,1001.4104,23.1100,99.0250,0.0010,0.0100,1.0170,0.9800,-1.3300,0.0000,-0.1389,0.1820,9.8306,-0.0106,0.0053,0.0053,16.6500,27.7500,21.7500,26.1757,0.00,0.00,-17000.00,0.00,0,0,0,1615075258,0,0
2165,1001.4250,23.1200,98.9019,0.0060,0.0090,1.0160,0.7000,-1.8200,0.0000,-0.1484,0.1676,10.0030,0.0000,0.0011,0.0106,16.6500,27.3000,21.7500,26.0319,0.00,0.00,-17000.00,0.00,0,0,0,1615075258,0,0
2190,1001.4399,23.1200,98.7767,0.0020,0.0060,1.0160,0.9100,-1.5400,0.0000,-0.0622,0.1867,9.8976,-0.0053,0.0032,0.0074,16.6500,28.5000,22.0500,26.2715,0.00,0.00,-17000.00,0.00,0,0,0,1615075258,0,0
2215,1001.4399,23.1200,98.7767,-0.0030,0.0090,1.0130,0.9800,-1.4700,0.0000,-0.1389,-0.0239,10.0221,-0.0021,-0.0053,0.0032,16.9500,27.9000,21.9000,26.1757,0.00,0.00,-17000.00,0.00,0,0,0,1615075258,0,0
2240,1001.4573,23.1200,98.6311,-0.0100,0.0120,1.0130,1.2600,-1.1200,0.0000,-0.2107,-0.2251,9.9503,0.0021,-0.0032,-0.0223,16.2000,27.1500,22.2000,25.9840,0.00,0.00,-17000.00,0.00,0,0,0,1615075258,0,0
2265,1001.4573,23.1200,98.6311,-0.0340,0.0170,1.0150,0.6300,-2.0300,-1.1900,-0.0622,-0.1484,10.0365,-0.0117,0.0053,-0.0458,16.6500,27.3000,22.0500,26.1757,0.00,0.00,-17000.00,0.00,0,0,0,1615075259,0,0
2290,1001.4451,23.1200,98.7336,-0.0200,0.0120,1.0140,0.7700,-1.5400,-2.9400,-0.0814,-0.0718,9.9024,0.0149,-0.0085,-0.0128,16.6500,27.3000,21.0000,25.9361,0.00,0.00,-17000.00,0.00,0,0,0,1615075259,0,0
2315,1001.4541,23.1200,98.6577,-0.0170,0.0020,1.0140,0.4200,-2.3100,-1.4700,-0.1341,0.0192,9.9407,-0.0106,0.0053,-0.0011,16.6500,27.7500,21.3000,26.1757,0.00,0.00,-17000.00,0.00,0,0,0,1615075259,0,0
2340,1001.4541,23.1200,98.6577,-0.0110,0.0040,1.0170,0.9100,-1.5400,-0.7700,-0.0479,0.0766,9.8881,0.0043,-0.0138,0.0128,17.8500,29.2500,22.8000,26.1757,0.00,0.00,-17000.00,0.00,0,0,0,1615075259,0,0
2365,1001.4561,23.1200,98.6413,-0.0100,0.0040,1.0170,0.9100,-1.5400,-0.1400,-0.1389,0.1101,9.8833,-0.0032,0.0011,0.0074,16.5000,28.2000,22.2000,26.2715,0.00,0.00,-17000.00,0.00,0,0,0,1615075259,0,0
2390,1001.4561,23.1200,98.6413,0.0000,0.0050,1.0130,0.8400,-1.6100,-0.0700,-0.0383,0.1580,9.9168,-0.0064,0.0074,0.0043,17.5500,27.9000,22.2000,25.9840,0.00,0.00,-17000.00,0.00,0,0,0,1615075259,0,0
2415,1001.4226,23.1300,98.9224,0.0000,0.0060,1.0130,1.1200,-1.2600,-0.0700,-0.1197,0.1006,9.9551,-0.0043,0.0000,0.0043,17.1000,27.3000,23.1000,26.3194,0.00,0.00,-17000.00,0.00,0,0,0,1615075259,0,0
2440,1001.4346,23.1200,98.8219,0.0000,0.0110,1.0160,1.1200,-1.2600,-0.0700,-0.1341,0.0431,9.8737,-0.0064,0.0032,0.0021,16.3500,27.7500,23.1000,26.2715,0.00,0.00,-17000.00,0.00,0,0,0,1615075259,0,0
2465,1001.4346,23.1200,98.8219,-0.0060,0.0130,1.0150,0.7700,-1.6100,-0.0700,-0.1580,-0.0048,9.9455,-0.0053,0.0000,0.0064,16.9500,27.1500,22.6500,26.2715,0.00,0.00,-17000.00,0.00,0,0,0,1615075259,0,0
2490,1001.4775,23.1200,98.4608,-0.0120,0.0110,1.0150,1.0500,-1.3300,-0.0700,-0.1724,-0.0335,9.9599,0.0011,0.0000,0.0043,16.3500,28.5000,22.3500,26.0319,0.00,0.00,-17000.00,0.00,0,0,0,1615075259,0,0
2515,1001.4775,23.1200,98.4608,-0.0150,0.0090,1.0150,0.9100,-1.6100,-0.0700,-0.1437,-0.0479,9.9503,-0.0053,0.0032,0.0064,15.4500,27.9000,22.2000,26.5111,0.00,0.00,-17000.00,0.00,0,0,0,1615075259,0,0
2540,1001.4143,23.1300,98.9922,-0.0170,0.0090,1.0150,0.9800,-1.5400,-0.0700,-0.0814,-0.0431,9.7875,-0.0011,-0.0021,0.0128,17.2500,28.6500,21.9000,26.1277,0.00,0.00,-17000.00,0.00,0,0,0,1615075259,0,0
2565,1001.4348,23.1200,98.8198,-0.0140,0.0080,1.0170,0.9800,-1.4000,0.0000,-0.1245,0.0383,9.9072,-0.0053,-0.0043,0.0053,16.9500,27.1500,23.2500,26.3194,0.00,0.00,-17000.00,0.00,0,0,0,1615075259,0,0
2590,1001.4348,23.1200,98.8198,-0.0080,0.0090,1.0150,0.9100,-1.4000,-0.0700,-0.1341,0.0527,9.9838,0.0021,-0.0011,0.0085,16.6500,27.0000,22.0500,25.9840,0.00,0.00,-17000.00,0.00,0,0,0,1615075259,0,0
2615,1001.4766,23.1200,98.4690,-0.0060,0.0100,1.0160,1.0500,-1.4000,-0.0700,-0.1293,0.0670,9.8210,0.0000,0.0053,0.0032,16.5000,28.9500,21.9000,26.3674,0.00,0.00,-17000.00,0.00,0,0,0,1615075259,0,0
2640,1001.4766,23.1200,98.4690,-0.0040,0.0090,1.0160,0.9100,-1.4700,-0.1400,-0.1245,0.0527,9.8881,0.0011,0.0000,0.0043,16.9500,27.9000,22.2000,26.1277,0.00,0.00,-17000.00,0.00,0,0,0,1615075259,0,0
2665,1001.4106,23.1200,99.0229,-0.0070,0.0100,1.0160,0.9100,-1.4000,-0.1400,-0.1484,0.0000,9.9072,-0.0021,-0.0011,0.0032,17.4000,27.0000,21.3000,26.1277,0.00,0.00,-17000.00,0.00,0,0,0,1615075259,0,0
2690,1001.4446,23.1300,98.7378,-0.0080,0.0090,1.0150,0.9800,-1.4700,-0.1400,-0.0527,-0.0431,9.8689,-0.0085,0.0032,0.0074,17.8500,29.2500,22.3500,26.1757,0.00,0.00,-17000.00,0.00,0,0,0,1615075259,0,0
2715,1001.4446,23.1300,98.7378,-0.0130,0.0080,1.0160,0.9100,-1.4000,-0.1400,-0.1101,-0.0144,9.9886,-0.0043,0.0000,0.0021,16.3500,27.7500,22.8000,26.2715,0.00,0.00,-17000.00,0.00,0,0,0,1615075259,0,0
2740,1001.4446,23.1200,98.7378,-0.0130,0.0080,1.0160,0.9100,-1.5400,-0.1400,-0.1676,0.0096,9.9599,-0.0011,-0.0021,0.0032,16.3500,27.0000,22.0500,26.3674,0.00,0.00,-17000.00,0.00,0,0,0,1615075259,0,0
2765,1001.4446,23.1200,98.7378,-0.0120,0.0090,1.0160,0.9800,-1.4000,-0.0700,-0.1197,0.0479,9.9072,-0.0011,-0.0032,0.0064,17.8500,27.0000,22.8000,26.1757,0.00,0.00,-17000.00,0.00,0,0,0,1615075259,0,0
2790,1001.4309,23.1300,98.8526,-0.0110,0.0090,1.0150,0.9100,-1.4700,-0.1400,-0.1820,0.0000,9.9982,-0.0043,-0.0011,0.0053,16.6500,28.5000,22.3500,26.1277,0.00,0.00,-17000.00,0.00,0,0,0,1615075259,0,0
2815,1001.4324,23.1300,98.8403,-0.0080,0.0080,1.0160,0.9800,-1.4700,-0.0700,-0.1197,0.0383,9.9120,0.0021,-0.0043,0.0021,15.4500,28.6500,21.9000,26.2715,0.00,0.00,-17000.00,0.00,0,0,0,1615075259,0,0
2840,1001.4324,23.1300,98.8403,-0.0050,0.0100,1.0150,0.8400,-1.6100,-0.1400,-0.1006,0.0335,9.8641,-0.0053,0.0011,0.0053,16.5000,28.2000,21.9000,26.3194,0.00,0.00,-17000.00,0.00,0,0,0,1615075259,0,0
2865,1001.4568,23.1300,98.6352,-0.0060,0.0100,1.0150,0.8400,-1.4000,-0.0700,-0.1484,0.0910,9.8450,0.0032,0.0011,0.0021,16.2000,27.9000,22.9500,26.0319,0.00,0.00,-17000.00,0.00,0,0,0,1615075259,0,0
2890,1001.4568,23.1300,98.6352,-0.0060,0.0080,1.0150,0.9100,-1.4000,-0.0700,-0.0431,0.0383,9.9790,-0.0043,-0.0053,0.0074,16.3500,27.7500,22.8000,26.1757,0.00,0.00,-17000.00,0.00,0,0,0,1615075259,0,0
2915,1001.4360,23.1300,98.8096,-0.0090,0.0100,1.0150,0.9100,-1.4700,-0.1400,-0.1389,0.0239,9.9024,0.0000,0.0000,0.0064,16.6500,27.7500,21.3000,26.3194,0.00,0.00,-17000.00,0.00,0,0,0,1615075259,0,0
2940,1001.4055,23.1300,99.0660,-0.0100,0.0090,1.0160,0.9100,-1.4000,-0.0700,-0.1676,0.0287,9.9120,-0.0053,0.0011,0.0053,16.3500,28.8000,22.0500,26.3194,0.00,0.00,-17000.00,0.00,0,0,0,1615075259,0,0
2965,1001.4055,23.1300,99.0660,-0.0120,0.0080,1.0150,0.9800,-1.4000,-0.0700,-0.1341,-0.0048,9.9695,0.0032,-0.0011,0.0021,15.7500,27.1500,22.9500,26.4632,0.00,0.00,-17000.00,0.00,0,0,0,1615075259,0,0
2990,1001.4277,23.1300,98.8793,-0.0120,0.0080,1.0160,0.9800,-1.4700,-0.0700,-0.1484,0.0287,9.9838,-0.0021,0.0011,0.0053,15.7500,29.4000,22.2000,26.4632,0.00,0.00,-17000.00,0.00,0,0,0,1615075259,0,0
3015,1001.4277,23.1300,98.8793,-0.0100,0.0090,1.0160,0.9100,-1.5400,-0.1400,-0.1149,0.0527,9.9599,-0.0011,0.0000,0.0021,18.1500,27.3000,21.7500,26.5111,0.00,0.00,-17000.00,0.00,0,0,0,1615075259,0,0
3040,1001.4412,23.1300,98.7665,-0.0070,0.0100,1.0150,0.9100,-1.4000,-0.0700,-0.1580,0.0527,9.9551,-0.0032,0.0011,0.0053,17.2500,27.4500,22.6500,26.1277,0.00,0.00,-17000.00,0.00,0,0,0,1615075259,0,0
3065,1001.4417,23.1300,98.7624,-0.0070,0.0110,1.0150,0.9100,-1.4700,-0.1400,-0.1772,0.0527,9.9695,-0.0032,0.0000,0.0064,17.1000,26.5500,22.3500,26.2715,0.00,0.00,-17000.00,0.00,0,0,0,1615075259,0,0
3090,1001.4417,23.1300,98.7624,-0.0060,0.0100,1.0150,0.9800,-1.4700,-0.1400,-0.0718,0.0527,9.9359,-0.0011,0.0011,0.0053,16.9500,27.9000,21.4500,26.1757,0.00,0.00,-17000.00,0.00,0,0,0,1615075259,0,0
3115,1001.4341,23.1300,98.8260,-0.0080,0.0060,1.0160,0.9100,-1.4000,-0.0700,-0.0431,0.0383,9.9359,-0.0085,0.0011,0.0032,16.2000,27.1500,22.6500,26.1757,0.00,0.00,-17000.00,0.00,0,0,0,1615075259,0,0
3140,1001.4341,23.1300,98.8260,-0.0090,0.0050,1.0150,0.9100,-1.4000,-0.0700,-0.1293,0.0000,9.9503,0.0011,-0.0053,0.0053,17.2500,28.2000,21.9000,26.6549,0.00,0.00,-17000.00,0.00,0,0,0,1615075259,0,0
3165,1001.4375,23.1300,98.7973,-0.0110,0.0070,1.0150,0.9100,-1.6100,0.0000,-0.1532,0.0239,9.9742,-0.0032,-0.0032,0.0000,16.3500,28.5000,21.7500,26.1277,0.00,0.00,-17000.00,0.00,0,0,0,1615075259,0,0
3207,1001.4597,23.1300,98.6105,-0.0100,0.0120,1.0160,0.8400,-1.4000,-0.0700,-0.1820,0.0144,9.9120,-0.0043,0.0000,0.0053,16.3500,28.5000,21.3000,26.5111,0.00,0.00,-17000.00,0.00,0,0,0,1615075259,0,0
3258,1001.4385,23.1300,98.7890,-0.0090,0.0110,1.0150,0.9100,-1.5400,-0.1400,-0.1149,0.0479,9.9024,-0.0032,-0.0064,0.0011,16.5000,28.6500,21.4500,26.1757,0.00,0.00,-17000.00,0.00,0,0,0,1615075260,0,0
3283,1001.4385,23.1300,98.7890,-0.0080,0.0070,1.0160,0.9100,-1.5400,-0.0700,-0.1628,0.0670,9.9311,-0.0064,-0.0032,0.0064,16.2000,28.2000,22.9500,26.3194,0.00,0.00,-17000.00,0.00,0,0,0,1615075260,0,0
3308,1001.4512,23.1300,98.6824,-0.0080,0.0070,1.0150,0.9800,-1.4000,-0.0700,-0.1580,-0.0383,10.0030,-0.0074,-0.0011,0.0064,15.6000,27.7500,22.0500,26.4632,0.00,0.00,-17000.00,0.00,0,0,0,1615075260,0,0
3333,1001.4224,23.1400,98.9245,-0.0090,0.0080,1.0160,1.0500,-1.1900,0.0000,-0.1341,0.0479,9.9599,0.0053,-0.0021,0.0021,16.9500,27.1500,22.2000,26.5111,0.00,0.00,-17000.00,0.00,0,0,0,1615075260,0,0
3358,1001.4224,23.1400,98.9245,-0.0090,0.0080,1.0150,0.9100,-1.5400,-0.0700,-0.1915,0.0622,9.9886,-0.0032,0.0032,0.0064,17.8500,28.5000,22.3500,26.5111,0.00,0.00,-17000.00,0.00,0,0,0,1615075260,0,0
3383,1001.4438,23.1400,98.7439,-0.0090,0.0100,1.0160,1.0500,-1.4000,-0.0700,-0.1293,0.0575,9.9072,-0.0011,-0.0021,0.0043,17.1000,27.7500,21.7500,26.5590,0.00,0.00,-17000.00,0.00,0,0,0,1615075260,0,0
3408,1001.4438,23.1400,98.7439,-0.0090,0.0100,1.0160,0.8400,-1.4700,-0.0700,-0.0718,0.0287,9.9072,-0.0032,0.0053,0.0117,17.2500,26.7000,22.6500,26.5111,0.00,0.00,-17000.00,0.00,0,0,0,1615075260,0,0
3433,1001.4321,23.1300,98.8424,-0.0090,0.0090,1.0140,0.9100,-1.4000,-0.1400,-0.0814,-0.0096,9.8928,-0.0011,-0.0021,0.0085,15.1500,28.2000,22.2000,26.5111,0.00,0.00,-17000.00,0.00,0,0,0,1615075260,0,0
3459,1001.4321,23.1300,98.8424,-0.0090,0.0080,1.0150,0.9100,-1.3300,-0.1400,-0.0910,0.0144,9.8785,0.0000,0.0000,0.0096,17.2500,27.1500,22.2000,26.5111,0.00,0.00,-17000.00,0.00,0,0,0,1615075260,0,0
3484,1001.4102,23.1400,99.0270,-0.0090,0.0080,1.0160,0.9800,-1.4000,-0.0700,-0.1389,0.1197,9.8833,-0.0043,0.0011,0.0021,16.6500,29.2500,21.7500,26.3194,0.00,0.00,-17000.00,0.00,0,0,0,1615075260,0,0
3509,1001.4102,23.1400,99.0270,-0.0080,0.0080,1.0150,0.9100,-1.4000,-0.0700,-0.1389,0.0335,9.8114,-0.0043,-0.0011,0.0064,16.0500,27.7500,21.7500,26.3674,0.00,0.00,-17000.00,0.00,0,0,0,1615075260,0,0
3534,1001.4189,23.1300,98.9532,-0.0100,0.0110,1.0160,0.9800,-1.4000,0.0000,-0.0958,0.0192,9.9503,-0.0011,-0.0021,0.0064,16.9500,27.9000,22.6500,26.1757,0.00,0.00,-17000.00,0.00,0,0,0,1615075260,0,0
3559,1001.4255,23.1400,98.8978,-0.0090,0.0100,1.0150,0.9800,-1.4000,-0.0700,-0.1293,0.0192,9.9886,0.0000,0.0011,0.0032,16.3500,27.7500,22.0500,26.3194,0.00,0.00,-17000.00,0.00,0,0,0,1615075260,0,0
3584,1001.4255,23.1400,98.8978,-0.0110,0.0090,1.0160,0.9800,-1.4000,-0.1400,-0.1245,0.0048,9.8976,-0.0011,-0.0053,0.0064,16.5000,28.6500,21.4500,26.5111,0.00,0.00,-17000.00,0.00,0,0,0,1615075260,0,0
3609,1001.4431,23.1400,98.7501,-0.0100,0.0060,1.0150,0.9100,-1.6100,-0.1400,-0.1245,0.0048,9.9311,-0.0149,0.0043,0.0053,16.6500,27.0000,21.0000,26.1277,0.00,0.00,-17000.00,0.00,0,0,0,1615075260,0,0
3634,1001.4431,23.1400,98.7501,-0.0080,0.0080,1.0160,1.1200,-1.1900,-0.0700,-0.1532,0.0431,9.9359,0.0043,-0.0053,0.0032,16.0500,28.8000,22.8000,26.3194,0.00,0.00,-17000.00,0.00,0,0,0,1615075260,0,0
3659,1001.4614,23.1400,98.5962,-0.0090,0.0100,1.0150,0.9800,-1.4000,-0.0700,-0.0862,0.0814,9.9599,-0.0064,0.0021,0.0021,16.5000,26.4000,22.2000,26.3674,0.00,0.00,-17000.00,0.00,0,0,0,1615075260,0,0
3684,1001.4502,23.1500,98.6906,-0.0080,0.0100,1.0160,0.8400,-1.6100,-0.0700,-0.1053,0.0287,9.8976,0.0053,-0.0043,0.0032,17.8500,27.3000,21.3000,26.3674,0.00,0.00,-17000.00,0.00,0,0,0,1615075260,0,0
3709,1001.4502,23.1500,98.6906,-0.0090,0.0090,1.0170,0.9800,-1.4700,-0.1400,-0.1149,0.1341,9.9359,-0.0085,0.0000,0.0213,16.0500,28.5000,23.8500,26.1757,0.00,0.00,-17000.00,0.00,0,0,0,1615075260,0,0
3734,1001.4272,23.1400,98.8834,-0.0060,0.0070,1.0160,1.1200,-1.2600,0.0700,-0.1532,-0.1006,10.0461,-0.0074,-0.0021,0.0106,17.1000,29.2500,22.3500,26.3194,0.00,0.00,-17000.00,0.00,0,0,0,1615075260,0,0
3759,1001.4272,23.1400,98.8834,-0.0090,0.0080,1.0140,1.0500,-1.2600,0.2100,-0.1437,0.0335,9.9982,-0.0021,0.0043,0.0138,16.6500,29.2500,22.0500,26.4632,0.00,0.00,-17000.00,0.00,0,0,0,1615075260,0,0
3784,1001.4189,23.1400,98.9532,-0.0100,0.0090,1.0140,0.9100,-1.6100,0.3500,-0.1484,0.0287,10.0030,-0.0021,0.0000,0.0043,16.6500,27.3000,22.8000,26.5590,0.00,0.00,-17000.00,0.00,0,0,0,1615075260,0,0
3809,1001.4189,23.1400,98.9532,-0.0110,0.0120,1.0160,1.1200,-1.2600,0.3500,-0.1293,0.0096,9.8833,-0.0053,0.0011,0.0106,16.5000,27.9000,21.1500,26.1277,0.00,0.00,-17000.00,0.00,0,0,0,1615075260,0,0
3834,1001.4446,23.1500,98.7378,-0.0090,0.0110,1.0160,0.9100,-1.4700,0.0700,-0.1484,0.0814,9.8737,0.0000,-0.0043,0.0043,17.2500,27.9000,22.9500,26.5590,0.00,0.00,-17000.00,0.00,0,0,0,1615075260,0,0
3860,1001.4446,23.1500,98.7378,-0.0080,0.0090,1.0150,0.9800,-1.4000,-0.0700,-0.0910,0.0479,9.9311,-0.0043,0.0021,0.0032,15.6000,27.0000,22.0500,25.7923,0.00,0.00,-17000.00,0.00,0,0,0,1615075260,0,0
3884,1001.4551,23.1500,98.6495,-0.0080,0.0080,1.0160,0.9100,-1.4000,-0.0700,-0.1484,-0.0048,9.9455,0.0000,-0.0021,0.0053,16.5000,28.2000,22.6500,26.5111,0.00,0.00,-17000.00,0.00,0,0,0,1615075260,0,0
3909,1001.4551,23.1500,98.6495,-0.0090,0.0090,1.0150,0.9100,-1.4000,-0.0700,-0.1149,0.0383,10.0173,-0.0043,-0.0021,0.0085,17.4000,28.0500,22.3500,26.6549,0.00,0.00,-17000.00,0.00,0,0,0,1615075260,0,0
3934,1001.4136,23.1500,98.9983,-0.0100,0.0090,1.0150,1.0500,-1.4000,-0.0700,-0.1580,-0.0096,9.9072,-0.0053,0.0011,0.0000,16.6500,28.5000,21.7500,26.5111,0.00,0.00,-17000.00,0.00,0,0,0,1615075260,0,0
3959,1001.4641,23.1500,98.5736,-0.0100,0.0100,1.0150,0.9800,-1.4700,-0.0700,-0.1006,0.0048,9.9695,-0.0053,-0.0021,0.0043,16.5000,27.9000,21.9000,26.3194,0.00,0.00,-17000.00,0.00,0,0,0,1615075260,0,0
3984,1001.4641,23.1500,98.5736,-0.0110,0.0090,1.0160,0.9800,-1.4700,-0.0700,-0.1437,-0.0144,9.9695,-0.0043,0.0000,0.0011,16.5000,27.4500,20.8500,26.3194,0.00,0.00,-17000.00,0.00,0,0,0,1615075260,0,0
4009,1001.4353,23.1500,98.8157,-0.0100,0.0090,1.0150,0.9100,-1.4000,-0.1400,-0.0670,0.0622,9.9886,-0.0032,0.0000,0.0053,17.4000,27.7500,22.0500,26.1757,0.00,0.00,-17000.00,0.00,0,0,0,1615075260,0,0
4034,1001.4353,23.1500,98.8157,-0.0100,0.0080,1.0150,0.9100,-1.4700,-0.1400,-0.1197,-0.0096,9.9647,-0.0053,0.0011,0.0021,16.9500,28.6500,21.1500,26.3674,0.00,0.00,-17000.00,0.00,0,0,0,1615075260,0,0
4059,1001.4060,23.1500,99.0619,-0.0090,0.0090,1.0160,0.9100,-1.4700,-0.0700,-0.1580,0.0383,9.9647,-0.0053,0.0021,0.0032,17.1000,27.3000,22.8000,26.3194,0.00,0.00,-17000.00,0.00,0,0,0,1615075260,0,0
4084,1001.4060,23.1500,99.0619,-0.0080,0.0100,1.0150,0.8400,-1.4700,-0.0700,-0.0862,0.0575,9.9264,-0.0064,0.0000,0.0053,16.5000,29.4000,21.9000,26.5590,0.00,0.00,-17000.00,0.00,0,0,0,1615075260,0,0
4109,1001.4060,23.1500,99.0619,-0.0090,0.0090,1.0150,0.9100,-1.4000,-0.0700,-0.2011,0.0383,9.9311,0.0011,-0.0011,0.0064,17.4000,27.3000,21.7500,26.5111,0.00,0.00,-17000.00,0.00,0,0,0,1615075260,0,0
4134,1001.4429,23.1500,98.7521,-0.0090,0.0100,1.0150,0.9100,-1.4700,-0.0700,-0.0670,-0.0239,9.9695,-0.0032,-0.0032,0.0053,17.4000,27.3000,22.3500,26.5111,0.00,0.00,-17000.00,0.00,0,0,0,1615075260,0,0
4160,1001.4429,23.1500,98.7521,-0.0090,0.0090,1.0150,0.9800,-1.4000,0.0000,-0.1245,0.0144,9.9503,-0.0043,-0.0021,0.0043,16.9500,27.9000,22.2000,26.3674,0.00,0.00,-17000.00,0.00,0,0,0,1615075260,0,0
4184,1001.4292,23.1500,98.8670,-0.0090,0.0080,1.0160,0.9800,-1.4000,-0.0700,-0.1532,0.0287,9.9599,-0.0043,-0.0021,0.0074,17.4000,28.0500,21.3000,26.3674,0.00,0.00,-17000.00,0.00,0,0,0,1615075260,0,0
4211,1001.4292,23.1500,98.8670,-0.0110,0.0080,1.0140,0.9800,-1.4000,-0.0700,-0.1053,0.0000,9.9742,-0.0021,0.0000,0.0074,17.4000,28.0500,22.8000,26.4632,0.00,0.00,-17000.00,0.00,0,0,0,1615075260,0,0
4235,1001.4485,23.1500,98.7049,-0.0100,0.0090,1.0150,0.9800,-1.4000,0.0000,-0.1101,0.0096,9.9599,-0.0032,-0.0011,0.0043,16.3500,28.0500,23.1000,26.5111,0.00,0.00,-17000.00,0.00,0,0,0,1615075260,0,0
4260,1001.4641,23.1500,98.5736,-0.0100,0.0100,1.0160,0.9100,-1.4700,0.0000,-0.1484,-0.0144,9.9503,0.0000,-0.0021,0.0074,16.9500,27.9000,21.9000,26.5111,0.00,0.00,-17000.00,0.00,0,0,0,1615075261,0,0
4285,1001.4641,23.1500,98.5736,-0.0090,0.0090,1.0150,1.0500,-1.4700,-0.0700,-0.1149,0.0431,9.9647,0.0011,-0.0032,0.0128,15.7500,28.2000,21.4500,26.6549,0.00,0.00,-17000.00,0.00,0,0,0,1615075261,0,0
4310,1001.4475,23.1500,98.7131,-0.0090,0.0080,1.0150,0.9800,-1.4700,-0.0700,-0.1532,0.0622,9.9407,-0.0053,-0.0043,0.0074,17.5500,25.9500,21.9000,26.5111,0.00,0.00,-17000.00,0.00,0,0,0,1615075261,0,0
4335,1001.4475,23.1500,98.7131,-0.0080,0.0090,1.0160,0.9100,-1.4700,-0.0700,-0.1389,0.0479,9.9647,-0.0096,-0.0032,0.0032,15.4500,28.2000,22.2000,26.4632,0.00,0.00,-17000.00,0.00,0,0,0,1615075261,0,0
4360,1001.4473,23.1400,98.7152,-0.0100,0.0080,1.0160,0.9100,-1.4000,0.0000,-0.1149,0.0527,9.9695,0.0000,0.0011,0.0106,16.0500,26.5500,21.7500,26.5111,0.00,0.00,-17000.00,0.00,0,0,0,1615075261,0,0
4385,1001.4429,23.1500,98.7521,-0.0090,0.0090,1.0160,0.9800,-1.4000,0.0000,-0.1197,0.0096,9.9695,-0.0032,0.0011,0.0053,16.2000,26.7000,21.1500,26.3674,0.00,0.00,-17000.00,0.00,0,0,0,1615075261,0,0
4410,1001.4429,23.1500,98.7521,-0.0100,0.0100,1.0160,0.9800,-1.4700,-0.0700,-0.1293,0.0144,9.8833,0.0011,0.0000,0.0064,16.3500,27.7500,19.9500,26.5111,0.00,0.00,-17000.00,0.00,0,0,0,1615075261,0,0
4435,1001.4282,23.1500,98.8752,-0.0100,0.0100,1.0150,0.9100,-1.4700,-0.0700,-0.1389,0.0239,9.9503,-0.0032,-0.0032,0.0043,15.7500,27.1500,22.2000,26.5111,0.00,0.00,-17000.00,0.00,0,0,0,1615075261,0,0
4460,1001.4282,23.1500,98.8752,-0.0110,0.0100,1.0160,0.9100,-1.4700,-0.0700,-0.1437,-0.0048,9.9216,0.0021,0.0011,0.0032,16.3500,28.5000,22.0500,26.3674,0.00,0.00,-17000.00,0.00,0,0,0,1615075261,0,0
4485,1001.4292,23.1500,98.8670,-0.0100,0.0090,1.0140,0.9100,-1.4700,-0.1400,-0.1341,0.0287,9.9647,-0.0032,-0.0021,0.0096,16.6500,28.5000,22.3500,26.4632,0.00,0.00,-17000.00,0.00,0,0,0,1615075261,0,0
4510,1001.4331,23.1500,98.8342,-0.0090,0.0090,1.0160,0.8400,-1.4700,-0.0700,-0.1197,0.0335,9.9742,-0.0043,0.0000,0.0011,16.9500,26.7000,22.2000,26.5590,0.00,0.00,-17000.00,0.00,0,0,0,1615075261,0,0
4536,1001.4331,23.1500,98.8342,-0.0100,0.0100,1.0160,0.9100,-1.4000,-0.0700,-0.1580,0.0383,10.0030,-0.0021,0.0011,0.0064,15.4500,25.6500,22.6500,26.3674,0.00,0.00,-17000.00,0.00,0,0,0,1615075261,0,0
4560,1001.4275,23.1400,98.8814,-0.0100,0.0090,1.0150,0.9100,-1.4700,-0.0700,-0.1437,-0.0239,9.8928,-0.0011,0.0000,0.0011,16.2000,27.9000,22.6500,26.4632,0.00,0.00,-17000.00,0.00,0,0,0,1615075261,0,0
4585,1001.4275,23.1400,98.8814,-0.0100,0.0090,1.0160,0.9800,-1.4700,-0.1400,-0.1915,0.0575,10.0078,-0.0074,0.0000,0.0011,17.1000,27.3000,22.8000,26.3674,0.00,0.00,-17000.00,0.00,0,0,0,1615075261,0,0
4610,1001.4333,23.1400,98.8321,-0.0100,0.0100,1.0150,0.9800,-1.4000,-0.0700,-0.1532,-0.0048,9.9551,-0.0021,0.0000,0.0043,15.6000,28.8000,22.3500,26.5590,0.00,0.00,-17000.00,0.00,0,0,0,1615075261,0,0
4635,1001.4504,23.1400,98.6885,-0.0110,0.0100,1.0150,0.9100,-1.3300,-0.0700,-0.1867,0.0144,9.9311,-0.0032,-0.0021,0.0021,18.0000,27.4500,24.0000,26.3674,0.00,0.00,-17000.00,0.00,0,0,0,1615075261,0,0
4660,1001.4504,23.1400,98.6885,-0.0110,0.0090,1.0140,0.9100,-1.4000,-0.1400,-0.1341,0.0431,9.9407,-0.0053,0.0000,0.0053,16.6500,28.5000,22.3500,26.3674,0.00,0.00,-17000.00,0.00,0,0,0,1615075261,0,0
4685,1001.4250,23.1400,98.9019,-0.0100,0.0080,1.0160,0.9800,-1.4000,-0.0700,-0.1245,0.0096,9.9934,-0.0053,-0.0021,0.0053,16.0500,28.8000,20.7000,26.2715,0.00,0.00,-17000.00,0.00,0,0,0,1615075261,0,0
4710,1001.4250,23.1400,98.9019,-0.0100,0.0080,1.0160,0.9100,-1.4700,-0.1400,-0.1724,0.0287,9.9599,-0.0032,-0.0021,0.0117,16.6500,27.3000,23.1000,26.5111,0.00,0.00,-17000.00,0.00,0,0,0,1615075261,0,0
4735,1001.4749,23.1400,98.4833,-0.0090,0.0090,1.0160,0.9100,-1.4700,-0.1400,-0.1341,0.0383,9.9647,-0.0043,-0.0011,0.0074,17.2500,28.9500,21.9000,26.1277,0.00,0.00,-17000.00,0.00,0,0,0,1615075261,0,0
4760,1001.4514,23.1300,98.6803,-0.0100,0.0080,1.0150,0.9100,-1.5400,-0.0700,-0.1293,0.0622,9.9742,-0.0032,0.0000,0.0064,15.6000,27.3000,23.1000,26.4632,0.00,0.00,-17000.00,0.00,0,0,0,1615075261,0,0
4785,1001.4514,23.1300,98.6803,-0.0090,0.0090,1.0150,0.8400,-1.4700,-0.0700,-0.1532,0.0479,9.9216,-0.0064,0.0074,0.0074,16.5000,27.4500,21.4500,26.3674,0.00,0.00,-17000.00,0.00,0,0,0,1615075261,0,0
4810,1001.4482,23.1400,98.7070,-0.0100,0.0100,1.0160,0.9800,-1.5400,-0.0700,-0.1293,0.0287,9.9695,-0.0043,0.0000,0.0032,17.4000,27.7500,22.0500,26.1757,0.00,0.00,-17000.00,0.00,0,0,0,1615075261,0,0
4835,1001.4482,23.1400,98.7070,-0.0100,0.0100,1.0150,0.9100,-1.4700,-0.0700,-0.1532,0.0622,9.9790,-0.0021,-0.0011,0.0032,17.1000,28.0500,22.3500,26.2715,0.00,0.00,-17000.00,0.00,0,0,0,1615075261,0,0
4860,1001.4431,23.1400,98.7501,-0.0100,0.0090,1.0160,0.8400,-1.4000,-0.0700,-0.1389,0.0144,9.9407,0.0011,0.0011,0.0032,16.5000,28.2000,23.2500,26.1757,0.00,0.00,-17000.00,0.00,0,0,0,1615075261,0,0
4885,1001.4307,23.1300,98.8547,-0.0100,0.0080,1.0140,0.9100,-1.4700,-0.0700,-0.1293,0.0192,9.9264,-0.0053,-0.0043,0.0074,16.6500,27.7500,22.8000,26.4632,0.00,0.00,-17000.00,0.00,0,0,0,1615075261,0,0
4910,1001.4307,23.1300,98.8547,-0.0100,0.0080,1.0150,0.9100,-1.5400,-0.1400,-0.0718,-0.0192,9.9264,-0.0096,-0.0021,0.0064,16.9500,27.9000,20.8500,26.4632,0.00,0.00,-17000.00,0.00,0,0,0,1615075261,0,0
4935,1001.4485,23.1400,98.7049,-0.0100,0.0090,1.0160,0.9800,-1.4000,-0.0700,-0.1245,-0.0096,9.9551,-0.0032,0.0032,0.0021,17.1000,26.5500,22.0500,26.3674,0.00,0.00,-17000.00,0.00,0,0,0,1615075261,0,0
4960,1001.4485,23.1400,98.7049,-0.0100,0.0100,1.0150,0.9800,-1.4000,-0.1400,-0.1772,-0.0144,9.9695,0.0021,0.0000,0.0053,16.5000,27.4500,22.2000,26.3674,0.00,0.00,-17000.00,0.00,0,0,0,1615075261,0,0
4985,1001.4517,23.1400,98.6783,-0.0090,0.0100,1.0140,0.9100,-1.4700,-0.0700,-0.1293,0.0383,9.9647,0.0000,0.0021,0.0064,16.2000,27.4500,23.2500,26.5111,0.00,0.00,-17000.00,0.00,0,0,0,1615075261,0,0
5010,1001.4465,23.1400,98.7213,-0.0090,0.0090,1.0160,0.9800,-1.5400,-0.0700,-0.1341,0.0622,9.9934,-0.0032,0.0000,0.0043,16.2000,28.2000,21.9000,26.4632,0.00,0.00,-17000.00,0.00,0,0,0,1615075261,0,0
5059,1001.4739,23.1400,98.4916,-0.0100,0.0090,1.0150,0.9100,-1.4700,0.0000,-0.0766,0.0048,9.9503,0.0000,-0.0021,0.0053,16.3500,28.0500,22.3500,26.5111,0.00,0.00,-17000.00,0.00,0,0,0,1615075261,0,0
5084,1001.4739,23.1400,98.4916,-0.0100,0.0090,1.0160,0.9800,-1.5400,-0.0700,-0.1053,-0.0096,9.9455,-0.0043,-0.0032,0.0074,16.5000,27.4500,21.4500,26.4632,0.00,0.00,-17000.00,0.00,0,0,0,1615075261,0,0
5109,1001.4585,23.1400,98.6208,-0.0090,0.0090,1.0150,0.9100,-1.4700,-0.0700,-0.0958,0.0239,9.9790,0.0000,0.0021,0.0032,17.1000,27.0000,22.3500,26.5111,0.00,0.00,-17000.00,0.00,0,0,0,1615075261,0,0
5134,1001.4055,23.1400,99.0660,-0.0100,0.0080,1.0150,0.9100,-1.4700,-0.1400,-0.1341,0.0383,10.0173,0.0000,-0.0032,0.0000,16.9500,26.7000,21.9000,26.3674,0.00,0.00,-17000.00,0.00,0,0,0,1615075261,0,0
5159,1001.4055,23.1400,99.0660,-0.0100,0.0090,1.0150,0.9100,-1.4700,-0.0700,-0.1053,0.0048,9.9551,-0.0021,0.0011,0.0032,16.6500,28.0500,22.0500,26.5590,0.00,0.00,-17000.00,0.00,0,0,0,1615075261,0,0
5184,1001.4382,23.1400,98.7911,-0.0100,0.0090,1.0150,0.9800,-1.6100,-0.0700,-0.1341,0.0287,9.9599,-0.0053,0.0011,0.0043,18.0000,27.4500,22.2000,26.6549,0.00,0.00,-17000.00,0.00,0,0,0,1615075261,0,0
5209,1001.4382,23.1400,98.7911,-0.0090,0.0100,1.0160,0.9800,-1.4700,-0.0700,-0.1197,0.0622,9.9455,-0.0053,-0.0053,0.0085,17.4000,26.5500,22.8000,26.6549,0.00,0.00,-17000.00,0.00,0,0,0,1615075261,0,0
5234,1001.4895,23.1400,98.3603,-0.0090,0.0090,1.0160,0.9800,-1.4000,-0.1400,-0.1437,-0.0144,9.9599,-0.0032,0.0011,0.0053,16.0500,29.8500,22.0500,26.3674,0.00,0.00,-17000.00,0.00,0,0,0,1615075261,0,0
5259,1001.4399,23.1400,98.7767,-0.0090,0.0090,1.0150,0.9100,-1.4700,-0.0700,-0.1149,0.0622,9.9503,-0.0032,-0.0011,0.0064,16.5000,27.9000,21.9000,26.5590,0.00,0.00,-17000.00,0.00,0,0,0,1615075262,0,0
5284,1001.4399,23.1400,98.7767,-0.0090,0.0080,1.0160,0.9100,-1.5400,-0.0700,-0.1437,0.0718,9.9647,0.0021,-0.0011,0.0043,16.2000,27.9000,22.9500,26.3194,0.00,0.00,-17000.00,0.00,0,0,0,1615075262,0,0
5310,1001.4653,23.1500,98.5634,-0.0100,0.0090,1.0160,0.9100,-1.4700,-0.0700,-0.1484,-0.0048,9.9551,0.0000,-0.0053,0.0064,16.9500,27.4500,21.4500,26.5590,0.00,0.00,-17000.00,0.00,0,0,0,1615075262,0,0
5363,1001.4629,23.1500,98.5839,-0.0100,0.0100,1.0160,0.9800,-1.4700,-0.1400,-0.1197,-0.0192,9.9599,-0.0074,0.0053,0.0053,16.2000,28.6500,22.9500,26.4632,0.00,0.00,-17000.00,0.00,0,0,0,1615075262,0,0
5387,1001.4629,23.1500,98.5839,-0.0100,0.0100,1.0160,0.8400,-1.4700,-0.0700,-0.1149,-0.0096,9.9503,-0.0064,0.0011,0.0053,16.2000,27.9000,21.4500,26.5590,0.00,0.00,-17000.00,0.00,0,0,0,1615075262,0,0
5412,1001.4231,23.1500,98.9183,-0.0100,0.0090,1.0150,0.9100,-1.4000,-0.0700,-0.1580,0.0383,9.9503,-0.0032,0.0000,0.0043,17.4000,27.3000,20.7000,26.0319,0.00,0.00,-17000.00,0.00,0,0,0,1615075262,0,0
5437,1001.4231,23.1500,98.9183,-0.0100,0.0090,1.0150,0.9800,-1.4000,-0.1400,-0.0814,0.0814,9.9742,-0.0064,0.0032,0.0053,16.3500,28.0500,22.8000,26.5111,0.00,0.00,-17000.00,0.00,0,0,0,1615075262,0,0
5462,1001.4841,23.1500,98.4054,-0.0090,0.0100,1.0160,0.9800,-1.4700,-0.0700,-0.1341,0.0575,10.0173,-0.0043,-0.0032,0.0053,17.5500,27.4500,21.1500,26.1757,0.00,0.00,-17000.00,0.00,0,0,0,1615075262,0,0
5487,1001.4641,23.1500,98.5736,-0.0090,0.0090,1.0160,0.9100,-1.4700,-0.0700,-0.1628,-0.0048,9.8833,0.0000,-0.0011,0.0011,16.5000,28.2000,22.2000,26.5111,0.00,0.00,-17000.00,0.00,0,0,0,1615075262,0,0
5512,1001.4641,23.1500,98.5736,-0.0090,0.0100,1.0150,0.9100,-1.4700,-0.0700,-0.1197,0.0192,9.9742,-0.0032,0.0000,0.0074,16.0500,27.3000,21.7500,26.3194,0.00,0.00,-17000.00,0.00,0,0,0,1615075262,0,0
5537,1001.4675,23.1500,98.5449,-0.0100,0.0100,1.0150,0.9100,-1.4700,0.0000,-0.0766,-0.0335,9.9838,-0.0085,-0.0043,0.0074,17.1000,27.7500,21.7500,26.5111,0.00,0.00,-17000.00,0.00,0,0,0,1615075262,0,0
5562,1001.4675,23.1500,98.5449,-0.0100,0.0090,1.0160,0.9800,-1.4000,-0.0700,-0.1820,0.0048,9.9695,-0.0053,-0.0043,0.0085,14.8500,27.0000,22.0500,26.2715,0.00,0.00,-17000.00,0.00,0,0,0,1615075262,0,0
5587,1001.4429,23.1500,98.7521,-0.0110,0.0080,1.0150,0.9800,-1.4700,-0.1400,-0.1245,-0.0287,9.9216,0.0000,-0.0032,0.0064,15.4500,28.6500,21.1500,26.5590,0.00,0.00,-17000.00,0.00,0,0,0,1615075262,0,0
5612,1001.4119,23.1500,99.0127,-0.0120,0.0090,1.0160,0.9800,-1.4700,-0.1400,-0.0958,0.0144,9.9982,0.0021,0.0043,0.0032,15.4500,27.9000,21.1500,26.4632,0.00,0.00,-17000.00,0.00,0,0,0,1615075262,0,0
5637,1001.4119,23.1500,99.0127,-0.0090,0.0090,1.0160,0.9800,-1.4700,-0.1400,-0.1293,0.0814,9.9359,-0.0021,-0.0011,0.0043,16.6500,27.0000,22.8000,26.2715,0.00,0.00,-17000.00,0.00,0,0,0,1615075262,0,0
5662,1001.4485,23.1500,98.7049,-0.0080,0.0100,1.0160,0.9100,-1.4700,-0.1400,-0.1149,0.0431,9.9599,-0.0064,0.0021,0.0053,16.6500,27.0000,21.7500,26.4632,0.00,0.00,-17000.00,0.00,0,0,0,1615075262,0,0
5687,1001.4485,23.1500,98.7049,-0.0080,0.0100,1.0160,0.9100,-1.4700,-0.1400,-0.1437,0.0575,9.9407,0.0043,0.0021,0.0085,17.1000,27.7500,21.7500,26.5111,0.00,0.00,-17000.00,0.00,0,0,0,1615075262,0,0
5712,1001.4133,23.1500,99.0004,-0.0080,0.0080,1.0150,0.8400,-1.5400,-0.0700,-0.1197,0.0431,9.9790,-0.0043,-0.0021,0.0106,17.1000,28.0500,22.0500,26.2715,0.00,0.00,-17000.00,0.00,0,0,0,1615075262,0,0
5737,1001.4783,23.1500,98.4546,-0.0090,0.0090,1.0160,0.9100,-1.4700,-0.0700,-0.1293,0.0000,9.9407,-0.0074,-0.0032,0.0043,16.6500,27.7500,22.3500,26.5111,0.00,0.00,-17000.00,0.00,0,0,0,1615075262,0,0
5762,1001.4783,23.1500,98.4546,-0.0100,0.0090,1.0160,0.9100,-1.4700,-0.0700,-0.1149,-0.0575,9.8976,0.0021,-0.0021,0.0053,16.5000,27.1500,21.1500,26.2715,0.00,0.00,-17000.00,0.00,0,0,0,1615075262,0,0
5787,1001.4927,23.1500,98.3336,-0.0110,0.0100,1.0140,0.9100,-1.4700,-0.0700,-0.1867,0.0479,9.9168,-0.0064,0.0000,0.0074,15.7500,28.2000,22.2000,26.5111,0.00,0.00,-17000.00,0.00,0,0,0,1615075262,0,0
5812,1001.4927,23.1500,98.3336,-0.0110,0.0100,1.0150,0.9100,-1.4700,-0.0700,-0.1197,0.0431,9.9790,-0.0043,0.0000,0.0053,16.9500,27.4500,21.1500,26.5590,0.00,0.00,-17000.00,0.00,0,0,0,1615075262,0,0
5837,1001.4294,23.1500,98.8650,-0.0100,0.0090,1.0160,0.9100,-1.5400,-0.1400,-0.1053,-0.0287,9.9120,-0.0043,-0.0011,0.0032,17.2500,26.7000,21.4500,26.5111,0.00,0.00,-17000.00,0.00,0,0,0,1615075262,0,0
5862,1001.4475,23.1600,98.7131,-0.0090,0.0080,1.0150,0.9800,-1.5400,-0.1400,-0.0527,0.0048,9.9072,0.0021,0.0000,0.0032,16.0500,28.0500,21.0000,26.3674,0.00,0.00,-17000.00,0.00,0,0,0,1615075262,0,0
5887,1001.4475,23.1600,98.7131,-0.0080,0.0070,1.0160,0.9800,-1.4700,-0.1400,-0.0958,-0.0670,9.9647,-0.0021,0.0032,0.0053,17.1000,26.5500,23.4000,26.5590,0.00,0.00,-17000.00,0.00,0,0,0,1615075262,0,0
5912,1001.4622,23.1500,98.5900,-0.0090,0.0080,1.0150,0.9100,-1.5400,-0.0700,-0.1101,0.0335,10.1083,-0.0074,0.0011,0.0064,16.5000,28.2000,21.1500,26.5111,0.00,0.00,-17000.00,0.00,0,0,0,1615075262,0,0
5937,1001.4622,23.1500,98.5900,-0.0090,0.0100,1.0150,0.9100,-1.4000,-0.0700,-0.2873,-0.0144,9.9072,-0.0128,0.0074,0.0096,15.7500,27.4500,23.2500,26.5111,0.00,0.00,-17000.00,0.00,0,0,0,1615075262,0,0
5962,1001.4600,23.1600,98.6085,-0.0110,0.0130,1.0170,0.9100,-1.4000,-0.0700,-0.1149,0.0910,10.0221,-0.0053,-0.0064,0.0032,16.3500,27.3000,22.0500,26.5590,0.00,0.00,-17000.00,0.00,0,0,0,1615075262,0,0
5987,1001.4377,23.1500,98.7952,-0.0090,0.0110,1.0160,0.8400,-1.5400,-0.0700,-0.1437,0.0670,9.9982,-0.0064,0.0043,0.0043,18.4500,28.0500,21.0000,26.4632,0.00,0.00,-17000.00,0.00,0,0,0,1615075262,0,0
6012,1001.4377,23.1500,98.7952,-0.0100,0.0090,1.0150,0.9800,-1.4000,-0.1400,-0.0718,0.0479,9.8833,0.0000,0.0000,0.0043,16.9500,26.7000,22.6500,26.5590,0.00,0.00,-17000.00,0.00,0,0,0,1615075262,0,0
6037,1001.4709,23.1600,98.5162,-0.0100,0.0070,1.0150,0.9100,-1.6100,-0.0700,-0.1437,0.0048,9.9838,-0.0096,0.0021,0.0032,17.1000,27.7500,21.0000,26.5111,0.00,0.00,-17000.00,0.00,0,0,0,1615075262,0,0
6062,1001.4709,23.1600,98.5162,-0.0090,0.0080,1.0160,0.9100,-1.4700,0.0000,-0.0910,0.0479,10.0365,-0.0021,-0.0043,0.0032,16.0500,27.3000,23.1000,26.6549,0.00,0.00,-17000.00,0.00,0,0,0,1615075262,0,0
6087,1001.4395,23.1600,98.7808,-0.0100,0.0090,1.0160,0.9800,-1.3300,-0.0700,-0.1293,0.0527,9.9503,-0.0011,0.0000,0.0011,17.1000,27.3000,21.3000,26.5111,0.00,0.00,-17000.00,0.00,0,0,0,1615075262,0,0
6112,1001.4480,23.1600,98.7090,-0.0070,0.0100,1.0150,1.0500,-1.3300,-0.0700,-0.1484,0.0144,9.9216,-0.0032,0.0000,0.0043,18.0000,27.4500,21.4500,26.5111,0.00,0.00,-17000.00,0.00,0,0,0,1615075262,0,0
6137,1001.4480,23.1600,98.7090,-0.0090,0.0110,1.0150,0.9800,-1.4700,-0.0700,-0.1820,0.0527,9.9359,0.0000,0.0011,0.0000,17.4000,28.0500,22.8000,26.5590,0.00,0.00,-17000.00,0.00,0,0,0,1615075262,0,0
6162,1001.4619,23.1600,98.5921,-0.0110,0.0080,1.0150,0.9100,-1.4700,-0.1400,-0.1389,-0.0096,9.9790,-0.0021,0.0032,0.0011,16.0500,26.5500,21.7500,26.5111,0.00,0.00,-17000.00,0.00,0,0,0,1615075262,0,0
6187,1001.4619,23.1600,98.5921,-0.0120,0.0090,1.0150,0.9800,-1.4000,-0.0700,-0.1532,-0.0383,9.9407,-0.0021,0.0000,0.0074,16.5000,27.9000,22.6500,26.6549,0.00,0.00,-17000.00,0.00,0,0,0,1615075262,0,0
6212,1001.4409,23.1600,98.7685,-0.0120,0.0070,1.0150,0.9100,-1.4700,-0.1400,-0.1772,0.0192,9.9599,-0.0064,-0.0011,0.0043,17.4000,27.7500,21.7500,26.5590,0.00,0.00,-17000.00,0.00,0,0,0,1615075262,0,0
6237,1001.4712,23.1600,98.5141,-0.0100,0.0090,1.0160,0.9100,-1.4700,-0.1400,-0.1676,0.0766,9.9311,0.0011,-0.0021,-0.0011,17.1000,27.0000,22.0500,26.5590,0.00,0.00,-17000.00,0.00,0,0,0,1615075262,0,0
6262,1001.4712,23.1600,98.5141,-0.0090,0.0100,1.0150,0.9800,-1.4700,-0.0700,-0.1820,0.0287,9.9742,-0.0032,-0.0011,0.0053,17.1000,27.7500,22.0500,26.5590,0.00,0.00,-17000.00,0.00,0,0,0,1615075263,0,0
6287,1001.4492,23.1600,98.6988,-0.0070,0.0090,1.0160,0.9100,-1.4700,-0.0700,-0.1197,0.0527,9.9264,-0.0043,-0.0021,0.0032,16.0500,28.0500,21.3000,26.4632,0.00,0.00,-17000.00,0.00,0,0,0,1615075263,0,0
6312,1001.4492,23.1600,98.6988,-0.0090,0.0090,1.0160,0.9800,-1.4700,0.0000,-0.1867,0.0335,9.9407,-0.0043,-0.0021,0.0043,17.4000,27.3000,21.7500,26.3674,0.00,0.00,-17000.00,0.00,0,0,0,1615075263,0,0
6337,1001.4351,23.1600,98.8178,-0.0090,0.0080,1.0160,0.9800,-1.4000,0.0000,-0.1532,-0.0096,9.9311,-0.0043,-0.0032,0.0011,16.5000,27.1500,21.9000,26.5590,0.00,0.00,-17000.00,0.00,0,0,0,1615075263,0,0
6362,1001.4277,23.1700,98.8793,-0.0110,0.0070,1.0150,0.9100,-1.4700,-0.0700,-0.1006,-0.0096,9.9647,-0.0053,0.0011,0.0085,16.3500,28.0500,22.0500,26.7987,0.00,0.00,-17000.00,0.00,0,0,0,1615075263,0,0
6387,1001.4277,23.1700,98.8793,-0.0120,0.0090,1.0140,0.9800,-1.4700,-0.1400,-0.1149,-0.0192,9.9695,-0.0032,0.0000,0.0053,16.0500,26.5500,22.0500,26.6549,0.00,0.00,-17000.00,0.00,0,0,0,1615075263,0,0
6412,1001.4626,23.1600,98.5859,-0.0100,0.0100,1.0160,0.9100,-1.5400,-0.0700,-0.1006,0.0766,10.0030,-0.0043,0.0000,0.0043,16.0500,28.2000,21.4500,26.3674,0.00,0.00,-17000.00,0.00,0,0,0,1615075263,0,0
6437,1001.4626,23.1600,98.5859,-0.0100,0.0100,1.0150,0.9100,-1.4000,-0.1400,-0.1006,0.0239,9.9455,-0.0032,-0.0011,0.0053,17.2500,27.9000,21.4500,26.3194,0.00,0.00,-17000.00,0.00,0,0,0,1615075263,0,0
6462,1001.4424,23.1600,98.7562,-0.0100,0.0100,1.0140,0.9100,-1.4000,-0.1400,-0.1245,0.0575,9.9311,-0.0011,0.0000,0.0085,16.6500,27.0000,20.7000,26.5111,0.00,0.00,-17000.00,0.00,0,0,0,1615075263,0,0
6487,1001.4485,23.1700,98.7049,-0.0090,0.0080,1.0160,0.9800,-1.5400,-0.0700,-0.1149,0.0575,9.9886,-0.0074,0.0021,0.0053,17.5500,29.4000,21.9000,26.3194,0.00,0.00,-17000.00,0.00,0,0,0,1615075263,0,0
6512,1001.4485,23.1700,98.7049,-0.0090,0.0090,1.0160,0.9800,-1.4700,0.0000,-0.1389,0.0144,9.9120,-0.0011,0.0000,0.0096,15.6000,27.3000,23.1000,26.5111,0.00,0.00,-17000.00,0.00,0,0,0,1615075263,0,0
6537,1001.4836,23.1700,98.4095,-0.0100,0.0100,1.0160,1.0500,-1.4000,-0.0700,-0.1389,0.0431,9.9982,-0.0032,0.0000,0.0053,16.3500,27.3000,22.3500,26.3194,0.00,0.00,-17000.00,0.00,0,0,0,1615075263,0,0
6562,1001.4836,23.1700,98.4095,-0.0100,0.0090,1.0160,0.9800,-1.4000,-0.1400,-0.1245,0.0048,9.8881,-0.0064,-0.0043,0.0064,17.5500,28.6500,24.3000,26.5111,0.00,0.00,-17000.00,0.00,0,0,0,1615075263,0,0
6587,1001.4338,23.1700,98.8280,-0.0090,0.0080,1.0160,0.9800,-1.4700,-0.1400,-0.1772,-0.0239,9.9407,0.0000,-0.0032,0.0085,17.5500,27.4500,22.6500,26.4632,0.00,0.00,-17000.00,0.00,0,0,0,1615075263,0,0
6612,1001.4248,23.1700,98.9039,-0.0100,0.0080,1.0150,0.9100,-1.4000,-0.1400,-0.1820,0.0000,9.9742,-0.0032,0.0000,0.0053,16.5000,26.4000,21.4500,26.5111,0.00,0.00,-17000.00,0.00,0,0,0,1615075263,0,0
6637,1001.4248,23.1700,98.9039,-0.0100,0.0090,1.0150,0.9100,-1.5400,-0.1400,-0.1437,0.0479,9.9072,0.0011,-0.0011,0.0043,16.5000,27.1500,21.9000,26.2715,0.00,0.00,-17000.00,0.00,0,0,0,1615075263,0,0
6662,1001.4395,23.1700,98.7808,-0.0100,0.0100,1.0160,0.9800,-1.4000,-0.1400,-0.1389,0.0527,9.9551,-0.0064,-0.0043,0.0117,15.6000,27.3000,21.3000,26.7987,0.00,0.00,-17000.00,0.00,0,0,0,1615075263,0,0
6687,1001.4395,23.1700,98.7808,-0.0090,0.0100,1.0160,0.9800,-1.4000,-0.0700,-0.1389,-0.0096,9.9647,-0.0032,-0.0011,0.0074,16.6500,28.5000,21.3000,26.2715,0.00,0.00,-17000.00,0.00,0,0,0,1615075263,0,0
6712,1001.4497,23.1700,98.6947,-0.0100,0.0100,1.0150,0.9800,-1.4000,0.0000,-0.0958,0.0287,9.9551,0.0032,0.0043,0.0085,16.0500,27.7500,22.3500,26.6549,0.00,0.00,-17000.00,0.00,0,0,0,1615075263,0,0
6737,1001.4795,23.1700,98.4444,-0.0100,0.0090,1.0150,1.0500,-1.4000,-0.0700,-0.1532,0.0575,9.9024,-0.0053,0.0021,0.0106,16.5000,26.7000,22.6500,26.3194,0.00,0.00,-17000.00,0.00,0,0,0,1615075263,0,0
6762,1001.4795,23.1700,98.4444,-0.0100,0.0090,1.0160,0.9800,-1.5400,-0.0700,-0.1053,-0.0239,9.9455,0.0011,-0.0043,0.0043,16.3500,28.5000,22.3500,26.3194,0.00,0.00,-17000.00,0.00,0,0,0,1615075263,0,0
6787,1001.4424,23.1700,98.7562,-0.0100,0.0090,1.0160,0.9100,-1.4000,-0.1400,-0.1101,0.0192,9.9742,-0.0032,0.0011,0.0074,16.6500,26.5500,21.3000,26.3194,0.00,0.00,-17000.00,0.00,0,0,0,1615075263,0,0
6812,1001.4424,23.1700,98.7562,-0.0110,0.0100,1.0160,0.9100,-1.4000,-0.1400,-0.1389,0.0096,9.9934,0.0043,0.0000,0.0043,16.0500,28.8000,20.7000,26.5111,0.00,0.00,-17000.00,0.00,0,0,0,1615075263,0,0
6837,1001.4158,23.1600,98.9799,-0.0110,0.0100,1.0160,0.9800,-1.4000,-0.1400,-0.0814,-0.0144,9.9886,-0.0032,0.0021,0.0064,15.7500,28.2000,22.2000,26.5111,0.00,0.00,-17000.00,0.00,0,0,0,1615075263,0,0
6862,1001.4141,23.1800,98.9942,-0.0110,0.0110,1.0160,0.9100,-1.4000,-0.0700,-0.0910,0.0192,9.9407,-0.0032,0.0011,0.0021,17.4000,27.0000,21.0000,26.3194,0.00,0.00,-17000.00,0.00,0,0,0,1615075263,0,0
6894,1001.4141,23.1800,98.9942,-0.0090,0.0080,1.0150,0.9100,-1.4000,-0.1400,-0.0718,-0.0096,9.9311,-0.0021,-0.0021,0.0064,16.6500,28.0500,21.7500,26.6549,0.00,0.00,-17000.00,0.00,0,0,0,1615075263,0,0
6919,1001.4436,23.1800,98.7460,-0.0090,0.0060,1.0160,0.9800,-1.4700,-0.0700,-0.1149,-0.0048,9.9168,-0.0043,0.0032,0.0085,15.7500,26.7000,21.4500,26.5111,0.00,0.00,-17000.00,0.00,0,0,0,1615075263,0,0
6944,1001.4148,23.1700,98.9881,-0.0090,0.0090,1.0160,0.9800,-1.4000,-0.1400,-0.1245,0.0527,9.9168,-0.0032,0.0021,0.0053,17.2500,27.9000,22.6500,26.5111,0.00,0.00,-17000.00,0.00,0,0,0,1615075263,0,0
6969,1001.4148,23.1700,98.9881,-0.0080,0.0090,1.0150,0.8400,-1.4000,-0.1400,-0.0958,0.0239,9.9838,-0.0043,-0.0032,0.0032,18.1500,29.2500,21.0000,26.6549,0.00,0.00,-17000.00,0.00,0,0,0,1615075263,0,0
6994,1001.4609,23.1700,98.6003,-0.0100,0.0110,1.0160,0.9800,-1.4000,-0.0700,-0.1341,0.0287,9.9503,-0.0032,-0.0011,0.0085,16.9500,28.2000,21.9000,26.5590,0.00,0.00,-17000.00,0.00,0,0,0,1615075263,0,0
7019,1001.4609,23.1700,98.6003,-0.0100,0.0110,1.0150,0.9100,-1.5400,-0.1400,-0.1341,0.0431,10.0030,-0.0053,-0.0011,0.0021,16.5000,26.4000,21.9000,26.5111,0.00,0.00,-17000.00,0.00,0,0,0,1615075263,0,0
7044,1001.4370,23.1800,98.8014,-0.0100,0.0100,1.0150,0.9100,-1.4700,-0.1400,-0.1484,0.0383,9.9886,-0.0043,0.0000,0.0021,16.5000,28.6500,23.7000,26.3674,0.00,0.00,-17000.00,0.00,0,0,0,1615075263,0,0
7069,1001.4434,23.1800,98.7480,-0.0090,0.0050,1.0150,0.8400,-1.6100,-0.1400,-0.1149,0.0670,9.9359,-0.0032,0.0032,0.0064,16.3500,28.0500,22.3500,26.5590,0.00,0.00,-17000.00,0.00,0,0,0,1615075263,0,0
7094,1001.4434,23.1800,98.7480,-0.0110,0.0040,1.0140,0.9800,-1.5400,-0.1400,-0.1389,0.0048,9.9407,-0.0064,0.0011,0.0064,16.3500,28.5000,22.8000,26.7987,0.00,0.00,-17000.00,0.00,0,0,0,1615075263,0,0
7119,1001.4470,23.1700,98.7172,-0.0120,0.0090,1.0150,0.9100,-1.6100,-0.0700,-0.1772,-0.0479,9.9503,-0.0053,0.0021,0.0032,16.6500,28.8000,23.1000,26.5111,0.00,0.00,-17000.00,0.00,0,0,0,1615075263,0,0
7144,1001.4470,23.1700,98.7172,-0.0140,0.0120,1.0170,0.9800,-1.4000,-0.0700,-0.1484,0.0144,10.0078,0.0000,-0.0021,0.0053,17.2500,27.9000,22.2000,26.6549,0.00,0.00,-17000.00,0.00,0,0,0,1615075263,0,0
7169,1001.4368,23.1700,98.8034,-0.0130,0.0140,1.0160,0.9800,-1.4000,-0.0700,-0.1389,0.1245,10.0078,-0.0138,0.0011,0.0053,16.3500,25.8000,21.7500,26.3674,0.00,0.00,-17000.00,0.00,0,0,0,1615075263,0,0
7194,1001.4829,23.1800,98.4156,-0.0060,0.0100,1.0150,1.0500,-1.2600,-0.0700,-0.1724,0.2155,9.8976,-0.0053,0.0032,0.0298,16.6500,27.3000,21.7500,26.5590,0.00,0.00,-17000.00,0.00,0,0,0,1615075263,0,0
7220,1001.4829,23.1800,98.4156,-0.0010,0.0090,1.0150,0.9800,-1.3300,0.1400,-0.0670,0.0575,9.9072,0.0021,-0.0096,0.0053,16.5000,27.9000,21.4500,26.7987,0.00,0.00,-17000.00,0.00,0,0,0,1615075263,0,0
7245,1001.4421,23.1800,98.7583,-0.0090,0.0080,1.0150,0.9100,-1.5400,0.2100,-0.1484,0.0575,10.0413,-0.0085,0.0043,0.0074,16.9500,28.2000,21.4500,26.5590,0.00,0.00,-17000.00,0.00,0,0,0,1615075264,0,0
7270,1001.4421,23.1800,98.7583,-0.0080,0.0080,1.0150,0.9800,-1.4000,-0.0700,-0.1341,0.0527,9.9072,-0.0011,-0.0021,0.0064,16.2000,27.4500,21.4500,26.3194,0.00,0.00,-17000.00,0.00,0,0,0,1615075264,0,0
7295,1001.4587,23.1800,98.6188,-0.0090,0.0080,1.0160,0.9800,-1.4700,0.0000,-0.1628,0.0192,9.9264,0.0011,-0.0021,0.0064,17.5500,28.9500,22.2000,26.5111,0.00,0.00,-17000.00,0.00,0,0,0,1615075264,0,0
7320,1001.4304,23.1800,98.8567,-0.0120,0.0100,1.0160,0.9800,-1.3300,-0.0700,-0.1006,-0.0096,9.9072,-0.0074,0.0000,0.0064,17.1000,27.7500,22.8000,26.5111,0.00,0.00,-17000.00,0.00,0,0,0,1615075264,0,0
7345,1001.4304,23.1800,98.8567,-0.0120,0.0110,1.0150,0.8400,-1.5400,-0.0700,-0.1484,0.0431,9.9503,0.0000,0.0021,0.0085,16.9500,28.2000,22.2000,26.1757,0.00,0.00,-17000.00,0.00,0,0,0,1615075264,0,0
7370,1001.4397,23.1700,98.7788,-0.0120,0.0090,1.0160,0.9100,-1.4700,-0.1400,-0.0958,-0.0096,10.0317,-0.0053,0.0021,0.0064,16.6500,27.3000,22.8000,26.3674,0.00,0.00,-17000.00,0.00,0,0,0,1615075264,0,0
7396,1001.4397,23.1700,98.7788,-0.0100,0.0070,1.0150,0.9100,-1.4700,-0.0700,-0.0575,0.0383,9.9695,0.0021,-0.0021,0.0043,17.1000,27.7500,23.1000,26.5590,0.00,0.00,-17000.00,0.00,0,0,0,1615075264,0,0
7448,1001.4600,23.1800,98.6085,-0.0090,0.0100,1.0160,0.9800,-1.4700,-0.0700,-0.1149,0.0718,9.9599,0.0000,-0.0011,0.0021,16.5000,27.4500,22.2000,26.4632,0.00,0.00,-17000.00,0.00,0,0,0,1615075264,0,0
7491,1001.4321,23.1800,98.8424,-0.0110,0.0110,1.0160,0.9100,-1.4700,-0.1400,-0.1293,0.0239,9.9311,-0.0021,0.0011,0.0053,17.1000,27.0000,21.7500,26.3674,0.00,0.00,-17000.00,0.00,0,0,0,1615075264,0,0
7515,1001.4321,23.1800,98.8424,-0.0110,0.0110,1.0150,0.9800,-1.4700,-0.1400,-0.1197,-0.0287,9.9168,-0.0064,0.0053,0.0053,16.2000,27.4500,22.9500,26.3674,0.00,0.00,-17000.00,0.00,0,0,0,1615075264,0,0
7540,1001.4395,23.1800,98.7808,-0.0130,0.0120,1.0150,0.9800,-1.4700,-0.1400,-0.1772,0.0383,9.9742,0.0032,-0.0074,0.0096,16.0500,27.3000,22.3500,26.5111,0.00,0.00,-17000.00,0.00,0,0,0,1615075264,0,0
7565,1001.4319,23.1800,98.8444,-0.0120,0.0110,1.0160,0.9100,-1.4000,-0.1400,-0.1053,-0.0096,9.9503,-0.0074,0.0021,0.0021,16.9500,27.9000,21.4500,26.5111,0.00,0.00,-17000.00,0.00,0,0,0,1615075264,0,0
7591,1001.4319,23.1800,98.8444,-0.0100,0.0080,1.0140,0.8400,-1.6100,-0.0700,-0.1484,0.0718,9.9599,0.0011,-0.0011,0.0053,16.2000,27.4500,22.2000,26.5590,0.00,0.00,-17000.00,0.00,0,0,0,1615075264,0,0
7615,1001.4492,23.1800,98.6988,-0.0090,0.0070,1.0160,0.9100,-1.4000,-0.1400,-0.1006,0.0431,10.0126,-0.0053,-0.0074,0.0064,17.2500,28.6500,21.9000,26.5111,0.00,0.00,-17000.00,0.00,0,0,0,1615075264,0,0
7640,1001.4492,23.1800,98.6988,-0.0070,0.0070,1.0160,0.9800,-1.5400,-0.0700,-0.1293,0.0239,9.9455,-0.0011,0.0021,0.0117,16.9500,27.4500,21.1500,26.4632,0.00,0.00,-17000.00,0.00,0,0,0,1615075264,0,0
7665,1001.4395,23.1800,98.7808,-0.0070,0.0090,1.0150,0.9100,-1.5400,-0.0700,-0.1341,0.0575,9.9838,-0.0043,-0.0021,0.0085,17.1000,27.7500,22.8000,26.3194,0.00,0.00,-17000.00,0.00,0,0,0,1615075264,0,0
7691,1001.4395,23.1800,98.7808,-0.0070,0.0090,1.0160,0.9800,-1.5400,-0.0700,-0.2107,0.0000,10.0221,-0.0011,-0.0032,0.0032,16.5000,26.7000,21.4500,26.6549,0.00,0.00,-17000.00,0.00,0,0,0,1615075264,0,0
7715,1001.4458,23.1800,98.7275,-0.0110,0.0110,1.0160,0.9100,-1.4700,-0.1400,-0.1532,0.0383,9.9599,-0.0064,-0.0021,0.0053,16.0500,28.5000,22.3500,26.5590,0.00,0.00,-17000.00,0.00,0,0,0,1615075264,0,0
7741,1001.4458,23.1800,98.7275,-0.0130,0.0110,1.0160,0.9100,-1.4700,-0.0700,-0.1197,0.0048,9.9647,0.0000,-0.0021,0.0021,17.4000,27.0000,21.7500,26.5111,0.00,0.00,-17000.00,0.00,0,0,0,1615075264,0,0
7765,1001.4451,23.1800,98.7336,-0.0110,0.0090,1.0160,0.9800,-1.4700,-0.0700,-0.1484,0.0192,9.9742,-0.0011,0.0021,0.0085,16.5000,27.4500,22.6500,26.5590,0.00,0.00,-17000.00,0.00,0,0,0,1615075264,0,0
7790,1001.4451,23.1800,98.7336,-0.0110,0.0090,1.0160,0.9100,-1.4000,-0.0700,-0.1197,0.0287,9.9790,-0.0021,0.0011,0.0064,16.3500,28.0500,22.0500,26.6549,0.00,0.00,-17000.00,0.00,0,0,0,1615075264,0,0
7815,1001.4785,23.1800,98.4526,-0.0100,0.0090,1.0160,0.9800,-1.4700,-0.0700,-0.1053,0.0479,9.9982,0.0011,0.0021,0.0053,16.6500,27.7500,22.3500,26.6549,0.00,0.00,-17000.00,0.00,0,0,0,1615075264,0,0
7841,1001.4785,23.1800,98.4526,-0.0090,0.0090,1.0160,0.9100,-1.4700,-0.0700,-0.1197,0.0239,9.9790,0.0000,0.0011,0.0043,16.5000,28.6500,22.6500,26.6549,0.00,0.00,-17000.00,0.00,0,0,0,1615075264,0,0
7865,1001.4077,23.1800,99.0476,-0.0100,0.0090,1.0160,0.9100,-1.4700,-0.0700,-0.1724,0.0192,9.9407,-0.0011,-0.0043,0.0053,16.9500,27.4500,20.4000,26.6549,0.00,0.00,-17000.00,0.00,0,0,0,1615075264,0,0
7890,1001.4077,23.1800,99.0476,-0.0090,0.0100,1.0160,0.9800,-1.4700,-0.0700,-0.1628,-0.0096,9.9551,-0.0043,0.0000,0.0106,17.2500,27.4500,21.9000,26.8466,0.00,0.00,-17000.00,0.00,0,0,0,1615075264,0,0
7915,1001.4502,23.1800,98.6906,-0.0100,0.0110,1.0150,0.9800,-1.4700,-0.1400,-0.1245,0.0335,9.9599,-0.0043,-0.0064,0.0021,18.1500,27.7500,22.8000,26.7987,0.00,0.00,-17000.00,0.00,0,0,0,1615075264,0,0
7941,1001.4502,23.1800,98.6906,-0.0100,0.0100,1.0150,0.9800,-1.5400,-0.0700,-0.1484,0.0096,9.9551,0.0011,-0.0021,0.0043,16.9500,27.4500,22.2000,26.3674,0.00,0.00,-17000.00,0.00,0,0,0,1615075264,0,0
7966,1001.4634,23.1800,98.5798,-0.0100,0.0090,1.0150,0.8400,-1.5400,-0.0700,-0.1341,0.0335,9.9599,-0.0021,0.0021,0.0064,15.7500,27.4500,21.9000,26.6549,0.00,0.00,-17000.00,0.00,0,0,0,1615075264,0,0
7991,1001.4302,23.1800,98.8588,-0.0100,0.0080,1.0150,0.9100,-1.6100,-0.0700,-0.1341,0.0096,9.9407,-0.0074,-0.0053,0.0043,17.5500,27.9000,21.4500,26.3194,0.00,0.00,-17000.00,0.00,0,0,0,1615075264,0,0
8016,1001.4302,23.1800,98.8588,-0.0100,0.0080,1.0160,1.0500,-1.4000,-0.0700,-0.1820,0.0144,10.0126,-0.0053,0.0011,0.0032,16.3500,26.5500,22.3500,26.5111,0.00,0.00,-17000.00,0.00,0,0,0,1615075264,0,0
8041,1001.4600,23.1800,98.6085,-0.0110,0.0090,1.0150,0.9100,-1.4700,-0.0700,-0.1867,0.0048,9.9599,-0.0021,-0.0021,0.0064,16.3500,27.3000,21.3000,26.5590,0.00,0.00,-17000.00,0.00,0,0,0,1615075264,0,0
8066,1001.4600,23.1800,98.6085,-0.0100,0.0100,1.0150,0.9100,-1.4000,-0.1400,-0.1341,0.0527,9.9551,-0.0011,0.0032,0.0074,15.4500,27.9000,22.9500,26.4632,0.00,0.00,-17000.00,0.00,0,0,0,1615075264,0,0
8091,1001.4509,23.1800,98.6844,-0.0090,0.0110,1.0160,0.9800,-1.4700,-0.0700,-0.1389,-0.0431,9.9695,-0.0053,-0.0021,0.0021,16.0500,27.7500,20.7000,26.7028,0.00,0.00,-17000.00,0.00,0,0,0,1615075264,0,0
8116,1001.4360,23.1800,98.8096,-0.0080,0.0090,1.0160,0.9800,-1.4700,-0.0700,-0.1532,0.0575,9.9455,-0.0032,0.0000,0.0043,18.3000,27.4500,22.6500,26.5590,0.00,0.00,-17000.00,0.00,0,0,0,1615075264,0,0
8141,1001.4360,23.1800,98.8096,-0.0080,0.0090,1.0160,0.9800,-1.4700,-0.1400,-0.1532,0.0335,9.9503,-0.0043,0.0000,0.0043,16.9500,26.4000,22.6500,26.5590,0.00,0.00,-17000.00,0.00,0,0,0,1615075264,0,0
8166,1001.4475,23.1800,98.7131,-0.0090,0.0080,1.0150,0.9100,-1.5400,-0.0700,-0.1006,-0.0048,9.9982,-0.0021,-0.0021,0.0043,15.7500,27.1500,22.6500,26.5590,0.00,0.00,-17000.00,0.00,0,0,0,1615075264,0,0
8191,1001.4475,23.1800,98.7131,-0.0090,0.0090,1.0150,0.9100,-1.4700,-0.0700,-0.1580,0.0239,9.9551,0.0043,-0.0011,0.0021,16.6500,27.3000,22.3500,26.3674,0.00,0.00,-17000.00,0.00,0,0,0,1615075264,0,0
8218,1001.4238,23.1800,98.9121,-0.0100,0.0090,1.0150,0.9100,-1.4700,-0.0700,-0.1580,0.0383,9.9742,-0.0053,-0.0043,0.0074,16.6500,28.8000,20.2500,26.7987,0.00,0.00,-17000.00,0.00,0,0,0,1615075264,0,0
8243,1001.4492,23.1800,98.6988,-0.0120,0.0100,1.0160,0.9800,-1.4700,-0.0700,-0.1676,0.0144,9.9695,0.0000,-0.0064,0.0064,16.5000,28.6500,22.9500,26.5111,0.00,0.00,-17000.00,0.00,0,0,0,1615075265,0,0
8268,1001.4492,23.1800,98.6988,-0.0120,0.0100,1.0160,0.9800,-1.4700,-0.1400,-0.0862,0.0192,10.0126,-0.0021,-0.0011,0.0021,16.3500,27.7500,21.7500,26.5111,0.00,0.00,-17000.00,0.00,0,0,0,1615075265,0,0
8293,1001.4636,23.1900,98.5777,-0.0100,0.0090,1.0160,0.9800,-1.4700,-0.0700,-0.0910,0.0383,9.9647,0.0032,0.0000,0.0064,16.6500,28.8000,22.3500,26.1277,0.00,0.00,-17000.00,0.00,0,0,0,1615075265,0,0
8318,1001.4636,23.1900,98.5777,-0.0090,0.0090,1.0160,0.9100,-1.4700,-0.1400,-0.0910,0.0096,9.9934,0.0000,-0.0032,0.0085,16.3500,28.8000,23.4000,26.5590,0.00,0.00,-17000.00,0.00,0,0,0,1615075265,0,0
8343,1001.4409,23.1900,98.7685,-0.0090,0.0090,1.0160,0.9800,-1.4700,-0.0700,-0.1197,0.0096,9.9599,0.0000,0.0000,0.0064,16.6500,28.0500,22.0500,26.3194,0.00,0.00,-17000.00,0.00,0,0,0,1615075265,0,0
8368,1001.4426,23.1900,98.7542,-0.0090,0.0090,1.0150,0.9800,-1.4700,-0.1400,-0.1628,-0.0144,9.9311,0.0011,0.0011,0.0011,16.9500,28.2000,22.2000,26.5590,0.00,0.00,-17000.00,0.00,0,0,0,1615075265,0,0
8393,1001.4426,23.1900,98.7542,-0.0100,0.0090,1.0150,0.9100,-1.4700,-0.0700,-0.0814,-0.0048,9.9407,-0.0011,0.0032,0.0011,15.6000,27.3000,22.8000,26.5111,0.00,0.00,-17000.00,0.00,0,0,0,1615075265,0,0
8418,1001.4524,23.1800,98.6721,-0.0100,0.0090,1.0160,0.9100,-1.5400,-0.0700,-0.0287,-0.0144,9.9551,-0.0011,-0.0021,0.0043,16.6500,28.5000,22.0500,26.5590,0.00,0.00,-17000.00,0.00,0,0,0,1615075265,0,0
8443,1001.4524,23.1800,98.6721,-0.0100,0.0080,1.0170,0.9800,-1.4700,-0.1400,-0.0670,0.0000,9.9311,-0.0064,-0.0011,0.0032,16.3500,28.5000,22.8000,26.5111,0.00,0.00,-17000.00,0.00,0,0,0,1615075265,0,0
8468,1001.4612,23.1900,98.5982,-0.0100,0.0070,1.0160,0.9800,-1.4700,-0.1400,-0.1006,0.0479,10.0221,-0.0021,0.0043,0.0032,16.5000,27.4500,22.2000,26.5590,0.00,0.00,-17000.00,0.00,0,0,0,1615075265,0,0
8493,1001.4163,23.1800,98.9757,-0.0090,0.0080,1.0150,0.9100,-1.5400,-0.1400,-0.1341,0.0239,9.9982,0.0032,-0.0053,0.0085,15.3000,28.0500,23.4000,26.3194,0.00,0.00,-17000.00,0.00,0,0,0,1615075265,0,0
8518,1001.4163,23.1800,98.9757,-0.0080,0.0090,1.0160,0.9100,-1.5400,-0.0700,-0.1915,0.0383,9.9695,-0.0074,-0.0043,0.0064,16.9500,26.7000,22.2000,26.6549,0.00,0.00,-17000.00,0.00,0,0,0,1615075265,0,0
8543,1001.4368,23.1900,98.8034,-0.0080,0.0100,1.0160,1.0500,-1.4700,-0.0700,-0.1628,0.0144,9.9790,-0.0021,0.0011,0.0011,16.3500,27.3000,21.3000,26.2715,0.00,0.00,-17000.00,0.00,0,0,0,1615075265,0,0
8568,1001.4368,23.1900,98.8034,-0.0070,0.0100,1.0160,1.0500,-1.5400,0.0000,-0.1245,0.0000,9.9647,-0.0043,-0.0021,0.0053,17.8500,27.7500,21.7500,26.5590,0.00,0.00,-17000.00,0.00,0,0,0,1615075265,0,0
8593,1001.4214,23.1900,98.9327,-0.0090,0.0100,1.0150,0.9100,-1.5400,0.0000,-0.1437,0.0192,9.9886,-0.0021,-0.0011,0.0064,17.2500,28.9500,21.9000,26.7987,0.00,0.00,-17000.00,0.00,0,0,0,1615075265,0,0
8618,1001.4070,23.1900,99.0537,-0.0120,0.0100,1.0160,0.9100,-1.5400,-0.0700,-0.0958,-0.0096,9.9647,-0.0021,0.0032,0.0064,16.3500,28.5000,22.8000,26.4632,0.00,0.00,-17000.00,0.00,0,0,0,1615075265,0,0
8643,1001.4070,23.1900,99.0537,-0.0120,0.0110,1.0150,0.9100,-1.4000,-0.0700,-0.1867,0.0048,9.9599,0.0000,0.0000,0.0085,16.9500,27.1500,21.4500,26.3674,0.00,0.00,-17000.00,0.00,0,0,0,1615075265,0,0
8668,1001.4265,23.1900,98.8896,-0.0120,0.0100,1.0150,0.9800,-1.4700,-0.0700,-0.1293,0.0144,9.9311,-0.0043,0.0021,0.0011,16.9500,27.4500,21.9000,26.6549,0.00,0.00,-17000.00,0.00,0,0,0,1615075265,0,0
8693,1001.4265,23.1900,98.8896,-0.0110,0.0090,1.0160,0.9100,-1.5400,-0.1400,-0.1101,0.0048,9.8976,0.0011,-0.0032,0.0074,16.6500,28.0500,22.0500,26.5590,0.00,0.00,-17000.00,0.00,0,0,0,1615075265,0,0
8718,1001.4429,23.1900,98.7521,-0.0100,0.0090,1.0160,0.9100,-1.4700,-0.1400,-0.1053,0.0383,9.9695,-0.0032,-0.0053,0.0032,16.9500,28.2000,22.6500,26.6549,0.00,0.00,-17000.00,0.00,0,0,0,1615075265,0,0
8751,1001.4202,23.1900,98.9429,-0.0070,0.0090,1.0150,0.9100,-1.4000,-0.0700,-0.0958,0.0575,9.9599,-0.0064,-0.0032,0.0032,17.2500,28.9500,23.2500,26.5590,0.00,0.00,-17000.00,0.00,0,0,0,1615075265,0,0
8775,1001.4202,23.1900,98.9429,-0.0070,0.0100,1.0160,0.9100,-1.5400,0.0000,-0.1245,0.0192,9.9934,-0.0011,-0.0021,0.0043,16.0500,28.5000,22.3500,26.6549,0.00,0.00,-17000.00,0.00,0,0,0,1615075265,0,0
8801,1001.4016,23.1800,99.0988,-0.0080,0.0100,1.0160,0.9800,-1.4700,-0.0700,-0.1437,0.0718,9.9359,-0.0053,0.0000,0.0053,16.0500,27.7500,22.3500,26.5590,0.00,0.00,-17000.00,0.00,0,0,0,1615075265,0,0
8826,1001.4146,23.1900,98.9901,-0.0090,0.0100,1.0150,0.9100,-1.4700,-0.0700,-0.1532,-0.0239,9.9647,-0.0021,0.0021,0.0011,16.0500,29.2500,21.7500,26.5590,0.00,0.00,-17000.00,0.00,0,0,0,1615075265,0,0
8851,1001.4146,23.1900,98.9901,-0.0120,0.0100,1.0160,0.9800,-1.4700,-0.0700,-0.0958,-0.0287,9.8881,-0.0032,-0.0011,0.0032,16.5000,27.1500,21.1500,26.4632,0.00,0.00,-17000.00,0.00,0,0,0,1615075265,0,0
8876,1001.4485,23.1900,98.7049,-0.0120,0.0100,1.0140,0.9100,-1.5400,-0.1400,-0.1580,0.0096,9.9359,-0.0032,-0.0011,0.0011,17.4000,27.7500,21.3000,26.5111,0.00,0.00,-17000.00,0.00,0,0,0,1615075265,0,0
8901,1001.4485,23.1900,98.7049,-0.0120,0.0100,1.0160,0.9800,-1.4000,-0.0700,-0.1293,0.0000,9.9455,-0.0032,-0.0032,0.0085,16.5000,26.7000,24.3000,26.4632,0.00,0.00,-17000.00,0.00,0,0,0,1615075265,0,0
8926,1001.4224,23.1900,98.9245,-0.0100,0.0090,1.0160,0.9100,-1.4700,0.0000,-0.1580,-0.0048,9.9455,-0.0021,-0.0011,0.0053,17.1000,27.7500,21.7500,26.5111,0.00,0.00,-17000.00,0.00,0,0,0,1615075265,0,0
8951,1001.4189,23.1900,98.9532,-0.0090,0.0090,1.0150,0.9800,-1.4700,-0.0700,-0.0862,0.0575,9.9742,-0.0011,0.0011,0.0074,16.5000,27.9000,22.6500,26.5590,0.00,0.00,-17000.00,0.00,0,0,0,1615075265,0,0
8976,1001.4189,23.1900,98.9532,-0.0080,0.0080,1.0160,0.9800,-1.4700,-0.0700,-0.1437,0.0239,10.0365,-0.0011,0.0011,-0.0011,17.5500,27.9000,21.9000,26.3674,0.00,0.00,-17000.00,0.00,0,0,0,1615075265,0,0
9001,1001.4487,23.1800,98.7029,-0.0080,0.0090,1.0160,0.9800,-1.4700,-0.0700,-0.1341,0.0383,9.9838,-0.0085,-0.0043,0.0032,18.0000,27.4500,21.4500,26.5111,0.00,0.00,-17000.00,0.00,0,0,0,1615075265,0,0
9026,1001.4487,23.1800,98.7029,-0.0090,0.0100,1.0160,0.9800,-1.4700,-0.0700,-0.1053,0.0479,9.9647,0.0000,-0.0021,0.0053,16.3500,28.5000,21.3000,26.4632,0.00,0.00,-17000.00,0.00,0,0,0,1615075265,0,0
9051,1001.4609,23.1800,98.6003,-0.0110,0.0090,1.0150,0.9100,-1.4700,-0.0700,-0.1101,0.0096,9.9695,-0.0011,-0.0021,0.0074,16.6500,27.7500,22.0500,26.5111,0.00,0.00,-17000.00,0.00,0,0,0,1615075265,0,0
9076,1001.4487,23.1800,98.7029,-0.0100,0.0080,1.0150,0.9800,-1.5400,-0.0700,-0.1245,0.0192,9.9551,0.0032,-0.0011,0.0106,16.6500,28.5000,22.8000,26.3674,0.00,0.00,-17000.00,0.00,0,0,0,1615075265,0,0
9101,1001.4487,23.1800,98.7029,-0.0110,0.0090,1.0160,0.9800,-1.5400,-0.1400,-0.1053,-0.0192,9.9072,0.0000,-0.0021,0.0011,16.6500,28.0500,22.8000,26.5590,0.00,0.00,-17000.00,0.00,0,0,0,1615075265,0,0
9126,1001.4321,23.1800,98.8424,-0.0110,0.0090,1.0150,0.9100,-1.4700,-0.0700,-0.1389,0.0335,9.9455,-0.0032,-0.0021,0.0085,16.6500,27.0000,22.8000,26.3674,0.00,0.00,-17000.00,0.00,0,0,0,1615075265,0,0
9151,1001.4321,23.1800,98.8424,-0.0100,0.0100,1.0140,0.9100,-1.4700,-0.0700,-0.1772,0.0239,9.9455,-0.0064,0.0021,0.0053,15.7500,27.4500,21.1500,26.6549,0.00,0.00,-17000.00,0.00,0,0,0,1615075265,0,0
9176,1001.4319,23.1800,98.8444,-0.0080,0.0090,1.0160,0.9800,-1.4700,-0.0700,-0.2011,0.0048,9.9647,-0.0021,-0.0032,0.0064,17.1000,28.8000,21.0000,26.4632,0.00,0.00,-17000.00,0.00,0,0,0,1615075265,0,0
9201,1001.4150,23.1800,98.9860,-0.0090,0.0100,1.0160,0.9800,-1.4700,-0.0700,-0.1532,0.0766,9.9311,-0.0021,0.0043,0.0074,16.3500,27.7500,21.7500,26.4632,0.00,0.00,-17000.00,0.00,0,0,0,1615075265,0,0
9226,1001.4150,23.1800,98.9860,-0.0090,0.0090,1.0160,0.9800,-1.4000,-0.0700,-0.1197,0.0383,9.9599,-0.0043,0.0000,0.0043,16.3500,28.0500,21.3000,26.6549,0.00,0.00,-17000.00,0.00,0,0,0,1615075265,0,0
9251,1001.4116,23.1800,99.0147,-0.0090,0.0090,1.0150,0.9800,-1.5400,-0.0700,-0.1820,0.0144,9.9695,-0.0032,0.0021,0.0043,18.0000,27.1500,23.7000,26.5111,0.00,0.00,-17000.00,0.00,0,0,0,1615075266,0,0
9276,1001.4116,23.1800,99.0147,-0.0090,0.0100,1.0160,0.9800,-1.5400,-0.0700,-0.1484,0.0096,9.9695,-0.0011,-0.0011,0.0053,16.2000,28.2000,21.9000,26.5590,0.00,0.00,-17000.00,0.00,0,0,0,1615075266,0,0
9301,1001.4153,23.1800,98.9840,-0.0110,0.0090,1.0150,0.9800,-1.5400,-0.0700,-0.1484,0.0479,9.9359,-0.0032,-0.0043,0.0032,16.5000,26.7000,21.9000,26.5590,0.00,0.00,-17000.00,0.00,0,0,0,1615075266,0,0
9326,1001.4109,23.1800,99.0209,-0.0100,0.0090,1.0160,0.9100,-1.4700,-0.0700,-0.0958,-0.0048,9.8881,-0.0053,0.0021,0.0032,16.9500,27.9000,20.8500,26.3674,0.00,0.00,-17000.00,0.00,0,0,0,1615075266,0,0
9351,1001.4109,23.1800,99.0209,-0.0100,0.0090,1.0150,0.9800,-1.4700,-0.0700,-0.1101,0.0431,9.9647,-0.0021,-0.0011,0.0043,18.1500,28.0500,23.4000,26.6549,0.00,0.00,-17000.00,0.00,0,0,0,1615075266,0,0
9376,1001.4497,23.1800,98.6947,-0.0100,0.0090,1.0160,0.9100,-1.5400,-0.0700,-0.1245,0.0287,9.9311,-0.0085,0.0032,0.0053,16.5000,26.4000,21.4500,26.6549,0.00,0.00,-17000.00,0.00,0,0,0,1615075266,0,0
9401,1001.4497,23.1800,98.6947,-0.0090,0.0100,1.0160,0.9800,-1.4700,-0.1400,-0.1053,-0.0287,9.9455,-0.0053,-0.0011,0.0064,18.1500,28.0500,22.0500,26.5111,0.00,0.00,-17000.00,0.00,0,0,0,1615075266,0,0
9426,1001.3977,23.1800,99.1317,-0.0090,0.0090,1.0160,0.9800,-1.4700,-0.0700,-0.1341,0.0527,9.9503,-0.0021,-0.0021,0.0032,15.7500,28.6500,21.4500,26.4632,0.00,0.00,-17000.00,0.00,0,0,0,1615075266,0,0
9451,1001.4031,23.1800,99.0865,-0.0080,0.0090,1.0150,0.9100,-1.4700,-0.1400,-0.1197,-0.0048,9.9599,-0.0032,-0.0011,0.0021,17.1000,28.0500,22.3500,26.7987,0.00,0.00,-17000.00,0.00,0,0,0,1615075266,0,0
9476,1001.4031,23.1800,99.0865,-0.0100,0.0100,1.0150,0.9100,-1.4700,-0.1400,-0.1580,0.0048,9.9695,-0.0011,0.0032,0.0074,16.2000,28.9500,21.9000,26.6549,0.00,0.00,-17000.00,0.00,0,0,0,1615075266,0,0
9501,1001.4326,23.1800,98.8383,-0.0110,0.0090,1.0160,0.9800,-1.5400,-0.1400,-0.1484,0.0670,9.9790,-0.0043,-0.0043,0.0032,16.9500,27.9000,22.9500,26.5590,0.00,0.00,-17000.00,0.00,0,0,0,1615075266,0,0
9526,1001.4326,23.1800,98.8383,-0.0100,0.0090,1.0150,0.9100,-1.4700,-0.0700,-0.1580,0.0144,9.9695,-0.0053,0.0074,0.0074,16.3500,28.0500,22.0500,26.5590,0.00,0.00,-17000.00,0.00,0,0,0,1615075266,0,0
9578,1001.4304,23.1800,98.8567,-0.0090,0.0100,1.0160,0.9100,-1.4700,-0.0700,-0.1437,0.0192,9.9407,-0.0011,0.0000,0.0032,16.2000,27.9000,23.2500,26.7987,0.00,0.00,-17000.00,0.00,0,0,0,1615075266,0,0
9623,1001.4563,23.1800,98.6393,-0.0090,0.0100,1.0150,0.9800,-1.4700,-0.0700,-0.1006,0.0335,9.9599,-0.0011,0.0000,0.0043,15.7500,26.7000,20.8500,26.7987,0.00,0.00,-17000.00,0.00,0,0,0,1615075266,0,0
9647,1001.4563,23.1800,98.6393,-0.0090,0.0100,1.0150,0.9800,-1.4700,-0.0700,-0.1724,0.0144,9.9647,-0.0032,0.0011,0.0053,17.2500,28.2000,21.4500,26.6549,0.00,0.00,-17000.00,0.00,0,0,0,1615075266,0,0
9672,1001.4492,23.1900,98.6988,-0.0080,0.0100,1.0160,0.9800,-1.4700,-0.0700,-0.1341,0.0527,9.9838,-0.0074,0.0043,0.0032,16.5000,27.4500,21.9000,26.4632,0.00,0.00,-17000.00,0.00,0,0,0,1615075266,0,0
9697,1001.4492,23.1900,98.6988,-0.0090,0.0100,1.0160,0.9800,-1.4000,-0.0700,-0.0814,-0.0239,9.9503,-0.0074,-0.0032,0.0064,14.8500,28.0500,23.1000,26.5111,0.00,0.00,-17000.00,0.00,0,0,0,1615075266,0,0
9722,1001.4502,23.1800,98.6906,-0.0110,0.0090,1.0160,0.9100,-1.4000,0.0000,-0.0622,0.0287,9.9838,0.0000,0.0011,0.0064,16.6500,27.3000,23.1000,26.5590,0.00,0.00,-17000.00,0.00,0,0,0,1615075266,0,0
9747,1001.4502,23.1800,98.6906,-0.0110,0.0080,1.0150,0.9100,-1.4700,-0.0700,-0.1293,0.0000,9.9599,-0.0043,0.0011,0.0053,16.5000,28.9500,21.9000,26.5590,0.00,0.00,-17000.00,0.00,0,0,0,1615075266,0,0
9772,1001.3955,23.1900,99.1501,-0.0120,0.0100,1.0160,0.9800,-1.4700,-0.0700,-0.1437,0.0575,9.9934,-0.0032,0.0011,0.0053,16.3500,27.0000,22.3500,26.3674,0.00,0.00,-17000.00,0.00,0,0,0,1615075266,0,0
9797,1001.3962,23.1800,99.1440,-0.0100,0.0090,1.0160,0.9100,-1.4700,-0.0700,-0.1006,-0.0335,9.9311,-0.0043,0.0000,0.0074,17.4000,27.0000,22.0500,26.4632,0.00,0.00,-17000.00,0.00,0,0,0,1615075266,0,0
9822,1001.3962,23.1800,99.1440,-0.0090,0.0100,1.0150,0.9800,-1.4700,-0.0700,-0.1676,0.0575,9.9503,-0.0032,-0.0032,0.0032,16.6500,28.8000,21.7500,26.5111,0.00,0.00,-17000.00,0.00,0,0,0,1615075266,0,0
9847,1001.4351,23.1800,98.8178,-0.0070,0.0100,1.0160,0.9800,-1.4700,-0.0700,-0.1197,0.0479,9.9790,-0.0064,0.0000,0.0011,17.2500,26.4000,22.2000,26.7987,0.00,0.00,-17000.00,0.00,0,0,0,1615075266,0,0
9872,1001.4351,23.1800,98.8178,-0.0080,0.0080,1.0160,0.9800,-1.4700,-0.0700,-0.1293,0.0048,9.9886,0.0000,0.0000,0.0064,17.8500,26.5500,22.0500,26.5111,0.00,0.00,-17000.00,0.00,0,0,0,1615075266,0,0
9897,1001.4375,23.1800,98.7973,-0.0080,0.0070,1.0160,0.9800,-1.4700,0.0000,-0.1724,0.0000,9.9455,-0.0011,0.0011,0.0021,15.7500,26.4000,22.2000,26.6549,0.00,0.00,-17000.00,0.00,0,0,0,1615075266,0,0
9922,1001.4155,23.1700,98.9819,-0.0100,0.0080,1.0160,0.9100,-1.4000,-0.0700,-0.1532,-0.0479,9.9120,0.0000,-0.0021,0.0064,15.7500,27.9000,22.6500,26.4632,0.00,0.00,-17000.00,0.00,0,0,0,1615075266,0,0
9947,1001.4155,23.1700,98.9819,-0.0110,0.0090,1.0160,0.9800,-1.4700,-0.0700,-0.1580,0.0000,9.9695,0.0011,-0.0032,0.0085,16.5000,29.7000,22.9500,26.4632,0.00,0.00,-17000.00,0.00,0,0,0,1615075266,0,0
9972,1001.4045,23.1800,99.0742,-0.0120,0.0100,1.0160,0.9800,-1.4700,-0.1400,-0.1532,-0.0096,9.8833,-0.0021,-0.0021,0.0053,16.5000,29.7000,22.9500,26.5590,0.00,0.00,-17000.00,0.00,0,0,0,1615075266,0,0
9997,1001.4045,23.1800,99.0742,-0.0110,0.0100,1.0150,0.9800,-1.4700,-0.1400,-0.1580,0.0096,9.9599,-0.0064,-0.0011,0.0032,15.4500,28.9500,21.1500,26.5590,0.00,0.00,-17000.00,0.00,0,0,0,1615075266,0,0
10022,1001.4031,23.1800,99.0865,-0.0090,0.0090,1.0150,0.9800,-1.4700,-0.0700,-0.1915,0.0479,9.9503,-0.0074,-0.0032,0.0043,16.3500,27.0000,21.0000,26.6549,0.00,0.00,-17000.00,0.00,0,0,0,1615075266,0,0
10047,1001.4031,23.1800,99.0865,-0.0090,0.0090,1.0160,0.9800,-1.4700,-0.0700,-0.1293,0.0527,9.9359,-0.0032,-0.0043,0.0096,17.4000,27.3000,22.0500,26.5111,0.00,0.00,-17000.00,0.00,0,0,0,1615075266,0,0
10072,1001.4126,23.1800,99.0065,-0.0090,0.0090,1.0150,0.9800,-1.4000,-0.0700,-0.1437,-0.0239,9.9695,-0.0053,-0.0011,0.0043,17.4000,26.5500,23.4000,26.7028,0.00,0.00,-17000.00,0.00,0,0,0,1615075266,0,0
10097,1001.4126,23.1800,99.0065,-0.0090,0.0090,1.0150,0.9100,-1.4700,-0.0700,-0.0958,0.0479,9.9311,-0.0074,-0.0021,0.0085,17.5500,26.7000,22.6500,26.5590,0.00,0.00,-17000.00,0.00,0,0,0,1615075266,0,0
10122,1001.3904,23.1800,99.1932,-0.0090,0.0100,1.0160,0.9100,-1.4700,-0.1400,-0.1437,0.0287,9.9072,-0.0085,0.0000,0.0032,15.7500,27.9000,21.9000,26.5590,0.00,0.00,-17000.00,0.00,0,0,0,1615075266,0,0
10148,1001.3904,23.1800,99.1932,-0.0090,0.0110,1.0160,0.8400,-1.4700,-0.0700,-0.1676,0.0096,9.9359,-0.0043,0.0000,0.0064,15.6000,27.0000,22.8000,26.5111,0.00,0.00,-17000.00,0.00,0,0,0,1615075266,0,0
10172,1001.4268,23.1800,98.8875,-0.0110,0.0110,1.0150,0.9100,-1.3300,-0.1400,-0.1197,0.0048,10.0317,-0.0053,0.0043,0.0074,18.1500,28.0500,21.0000,26.4632,0.00,0.00,-17000.00,0.00,0,0,0,1615075266,0,0
10197,1001.4385,23.1900,98.7890,-0.0110,0.0100,1.0150,0.9100,-1.4000,-0.1400,-0.0958,0.0575,9.9934,-0.0021,0.0021,0.0032,18.0000,27.9000,23.2500,26.3674,0.00,0.00,-17000.00,0.00,0,0,0,1615075266,0,0
10225,1001.4385,23.1900,98.7890,-0.0100,0.0090,1.0150,0.9100,-1.4000,-0.1400,-0.0910,0.0718,9.9982,-0.0106,-0.0053,0.0043,16.2000,28.2000,23.2500,26.6549,0.00,0.00,-17000.00,0.00,0,0,0,1615075266,0,0
10250,1001.4509,23.2000,98.6844,-0.0090,0.0070,1.0170,0.8400,-1.4000,-0.2100,-0.0958,0.0335,9.9742,0.0021,0.0021,0.0021,17.8500,27.7500,22.3500,26.3194,0.00,0.00,-17000.00,0.00,0,0,0,1615075267,0,0
10275,1001.4138,23.1900,98.9963,-0.0070,0.0050,1.0140,0.9100,-1.4700,-0.1400,-0.0958,0.0670,9.9647,0.0011,-0.0021,0.0064,16.9500,27.1500,22.2000,26.7987,0.00,0.00,-17000.00,0.00,0,0,0,1615075267,0,0
10300,1001.4138,23.1900,98.9963,-0.0070,0.0050,1.0150,0.9100,-1.5400,-0.0700,-0.1053,0.0814,9.9695,-0.0064,0.0032,0.0053,16.3500,28.5000,22.0500,26.5590,0.00,0.00,-17000.00,0.00,0,0,0,1615075267,0,0
10325,1001.4038,23.1900,99.0804,-0.0060,0.0070,1.0160,0.9100,-1.5400,-0.0700,-0.1628,0.0527,9.9359,-0.0064,-0.0043,0.0021,16.3500,27.3000,21.3000,26.7028,0.00,0.00,-17000.00,0.00,0,0,0,1615075267,0,0
10350,1001.4038,23.1900,99.0804,-0.0090,0.0110,1.0160,1.0500,-1.4700,-0.0700,-0.1389,0.0383,9.9311,0.0000,0.0032,0.0064,16.6500,28.8000,23.4000,26.5111,0.00,0.00,-17000.00,0.00,0,0,0,1615075267,0,0
10375,1001.4055,23.1900,99.0660,-0.0100,0.0120,1.0150,0.9800,-1.5400,0.0000,-0.1053,0.0000,9.9742,-0.0021,0.0021,0.0053,17.5500,28.2000,22.2000,26.6549,0.00,0.00,-17000.00,0.00,0,0,0,1615075267,0,0
10400,1001.4436,23.2000,98.7460,-0.0110,0.0120,1.0150,0.9100,-1.5400,0.0000,-0.1389,-0.0287,9.9407,-0.0043,0.0043,0.0043,16.5000,28.6500,21.4500,26.6549,0.00,0.00,-17000.00,0.00,0,0,0,1615075267,0,0
10425,1001.4436,23.2000,98.7460,-0.0120,0.0100,1.0160,0.9100,-1.4700,-0.0700,-0.1437,-0.0096,9.9120,-0.0032,0.0000,0.0053,15.7500,27.9000,23.2500,26.7987,0.00,0.00,-17000.00,0.00,0,0,0,1615075267,0,0
10450,1001.4373,23.1900,98.7993,-0.0120,0.0080,1.0160,0.9100,-1.4700,-0.0700,-0.1006,0.0192,9.9790,-0.0021,0.0000,0.0074,17.5500,28.2000,22.9500,26.4632,0.00,0.00,-17000.00,0.00,0,0,0,1615075267,0,0
10475,1001.4373,23.1900,98.7993,-0.0100,0.0080,1.0150,0.9800,-1.5400,-0.0700,-0.1437,0.0670,9.9982,-0.0032,0.0011,0.0096,17.5500,28.2000,21.4500,26.7028,0.00,0.00,-17000.00,0.00,0,0,0,1615075267,0,0
10500,1001.4136,23.2000,98.9983,-0.0080,0.0090,1.0160,0.8400,-1.6100,-0.0700,-0.1580,0.0527,9.9695,-0.0032,0.0021,0.0053,16.9500,27.4500,22.2000,26.7987,0.00,0.00,-17000.00,0.00,0,0,0,1615075267,0,0
10525,1001.4011,23.2000,99.1030,-0.0080,0.0100,1.0160,0.9100,-1.5400,-0.0700,-0.1245,0.0670,10.0126,-0.0032,-0.0032,0.0043,16.2000,27.9000,21.4500,26.7028,0.00,0.00,-17000.00,0.00,0,0,0,1615075267,0,0
10550,1001.4011,23.2000,99.1030,-0.0100,0.0100,1.0160,1.0500,-1.4700,0.0000,-0.1149,0.0144,9.9503,-0.0043,-0.0021,0.0043,17.4000,27.3000,20.7000,26.5590,0.00,0.00,-17000.00,0.00,0,0,0,1615075267,0,0
10575,1001.4082,23.2000,99.0435,-0.0100,0.0100,1.0150,1.0500,-1.4700,-0.0700,-0.1628,-0.0287,9.9982,-0.0064,-0.0032,0.0053,16.5000,26.7000,21.4500,26.7987,0.00,0.00,-17000.00,0.00,0,0,0,1615075267,0,0
10607,1001.4082,23.2000,99.0435,-0.0100,0.0080,1.0160,0.9100,-1.4700,-0.0700,-0.1006,0.0575,9.9790,-0.0085,-0.0021,0.0064,16.6500,27.3000,21.3000,26.5590,0.00,0.00,-17000.00,0.00,0,0,0,1615075267,0,0
10632,1001.4058,23.1900,99.0640,-0.0100,0.0090,1.0160,0.9100,-1.4700,-0.1400,-0.1149,0.0958,9.9551,-0.0043,0.0011,0.0053,17.2500,27.4500,22.9500,26.3674,0.00,0.00,-17000.00,0.00,0,0,0,1615075267,0,0
10657,1001.4563,23.2000,98.6393,-0.0090,0.0090,1.0140,0.9100,-1.4000,-0.0700,-0.1532,0.0239,9.9790,-0.0053,-0.0011,0.0000,15.1500,26.7000,21.4500,26.8466,0.00,0.00,-17000.00,0.00,0,0,0,1615075267,0,0
10682,1001.4563,23.2000,98.6393,-0.0090,0.0090,1.0150,0.9800,-1.4700,-0.0700,-0.1389,0.0239,9.9311,0.0021,-0.0021,0.0053,17.2500,27.4500,21.9000,26.5590,0.00,0.00,-17000.00,0.00,0,0,0,1615075267,0,0
10708,1001.3992,23.1900,99.1194,-0.0080,0.0090,1.0150,0.9100,-1.5400,-0.0700,-0.1245,0.0239,9.9455,-0.0064,0.0000,0.0074,17.4000,28.5000,21.7500,26.3674,0.00,0.00,-17000.00,0.00,0,0,0,1615075267,0,0
10733,1001.3992,23.1900,99.1194,-0.0090,0.0090,1.0150,0.9800,-1.4700,-0.0700,-0.0862,0.0335,9.9934,0.0000,0.0021,0.0064,16.2000,28.2000,20.8500,26.3194,0.00,0.00,-17000.00,0.00,0,0,0,1615075267,0,0
10758,1001.4316,23.2000,98.8465,-0.0090,0.0090,1.0160,0.9100,-1.4700,-0.0700,-0.1341,0.0527,9.9934,0.0043,0.0011,0.0053,17.1000,27.3000,22.0500,26.5590,0.00,0.00,-17000.00,0.00,0,0,0,1615075267,0,0
10783,1001.4238,23.1900,98.9121,-0.0090,0.0100,1.0150,0.9800,-1.5400,-0.0700,-0.1245,0.0575,9.9599,-0.0032,-0.0053,0.0085,17.1000,27.3000,22.0500,26.3194,0.00,0.00,-17000.00,0.00,0,0,0,1615075267,0,0
10808,1001.4238,23.1900,98.9121,-0.0100,0.0100,1.0150,0.9800,-1.4700,-0.0700,-0.1484,0.0575,9.9886,-0.0053,-0.0021,0.0074,17.5500,27.1500,21.1500,26.5590,0.00,0.00,-17000.00,0.00,0,0,0,1615075267,0,0
10833,1001.4233,23.1900,98.9162,-0.0100,0.0080,1.0160,0.9800,-1.4700,-0.1400,-0.1580,0.0527,9.9311,-0.0021,0.0000,0.0106,16.2000,25.9500,22.6500,26.3674,0.00,0.00,-17000.00,0.00,0,0,0,1615075267,0,0
10858,1001.4233,23.1900,98.9162,-0.0100,0.0100,1.0150,0.9800,-1.4700,-0.0700,-0.1053,-0.0096,9.9742,-0.0021,0.0000,0.0043,17.4000,28.0500,22.8000,26.4632,0.00,0.00,-17000.00,0.00,0,0,0,1615075267,0,0
10883,1001.4341,23.1900,98.8260,-0.0090,0.0090,1.0150,0.9800,-1.4700,-0.1400,-0.1197,-0.0383,9.9695,-0.0011,-0.0032,0.0043,16.3500,28.8000,22.0500,26.3674,0.00,0.00,-17000.00,0.00,0,0,0,1615075267,0,0
10908,1001.4150,23.2000,98.9860,-0.0100,0.0090,1.0150,0.9800,-1.4700,-0.0700,-0.0527,0.0527,9.9359,-0.0043,0.0000,0.0074,15.6000,27.7500,23.1000,26.6549,0.00,0.00,-17000.00,0.00,0,0,0,1615075267,0,0
10933,1001.4150,23.2000,98.9860,-0.0100,0.0090,1.0150,0.9100,-1.4700,-0.0700,-0.1149,0.0383,9.7252,0.0011,-0.0011,0.0053,16.9500,28.2000,21.1500,26.6549,0.00,0.00,-17000.00,0.00,0,0,0,1615075267,0,0
10958,1001.4097,23.1900,99.0311,-0.0100,0.0090,1.0150,0.9100,-1.4700,-0.0700,-0.1293,0.0335,10.1514,-0.0053,0.0000,0.0085,16.9500,28.6500,20.4000,26.5590,0.00,0.00,-17000.00,0.00,0,0,0,1615075267,0,0
10983,1001.4097,23.1900,99.0311,-0.0090,0.0100,1.0160,0.9100,-1.4700,-0.0700,-0.0718,0.0622,9.9168,-0.0043,0.0011,0.0074,16.9500,27.4500,21.4500,26.5590,0.00,0.00,-17000.00,0.00,0,0,0,1615075267,0,0
11008,1001.4001,23.2000,99.1112,-0.0100,0.0100,1.0150,0.9800,-1.4700,0.0000,-0.1628,0.0287,9.9264,0.0021,-0.0032,0.0053,17.1000,28.5000,21.3000,26.7987,0.00,0.00,-17000.00,0.00,0,0,0,1615075267,0,0
11033,1001.3882,23.1900,99.2117,-0.0100,0.0090,1.0150,0.9100,-1.4700,-0.0700,-0.1293,0.0479,9.8976,-0.0021,0.0021,0.0085,17.1000,27.0000,22.3500,26.5111,0.00,0.00,-17000.00,0.00,0,0,0,1615075267,0,0
11058,1001.3882,23.1900,99.2117,-0.0100,0.0090,1.0150,0.9100,-1.4700,-0.0700,-0.1293,0.0431,9.9311,-0.0021,-0.0043,0.0053,17.5500,28.9500,22.9500,26.6549,0.00,0.00,-17000.00,0.00,0,0,0,1615075267,0,0
11083,1001.3967,23.1900,99.1399,-0.0100,0.0100,1.0150,0.9100,-1.5400,-0.0700,-0.1580,0.0096,9.9742,-0.0074,-0.0064,0.0043,16.6500,27.3000,22.0500,26.5111,0.00,0.00,-17000.00,0.00,0,0,0,1615075267,0,0
11108,1001.3967,23.1900,99.1399,-0.0100,0.0090,1.0150,0.9100,-1.4700,-0.0700,-0.1676,0.0192,9.9216,-0.0053,-0.0021,0.0117,16.2000,28.2000,22.6500,26.7987,0.00,0.00,-17000.00,0.00,0,0,0,1615075267,0,0
11133,1001.4175,23.2000,98.9655,-0.0090,0.0090,1.0150,0.9100,-1.4700,-0.0700,-0.1149,0.0575,9.9168,0.0011,-0.0032,0.0011,16.6500,28.0500,22.2000,26.5590,0.00,0.00,-17000.00,0.00,0,0,0,1615075267,0,0
11158,1001.3945,23.1900,99.1584,-0.0100,0.0100,1.0150,0.9800,-1.4700,-0.0700,-0.0910,0.0479,9.9455,-0.0032,0.0011,0.0064,17.8500,28.0500,21.7500,26.5590,0.00,0.00,-17000.00,0.00,0,0,0,1615075267,0,0
11184,1001.3945,23.1900,99.1584,-0.0100,0.0080,1.0140,0.9100,-1.4700,-0.0700,-0.1197,0.0048,9.9264,-0.0032,-0.0011,0.0074,16.6500,27.0000,22.0500,26.7987,0.00,0.00,-17000.00,0.00,0,0,0,1615075267,0,0
11208,1001.4512,23.2000,98.6824,-0.0110,0.0090,1.0150,0.9100,-1.4700,-0.0700,-0.1101,0.0000,9.9264,-0.0032,-0.0011,0.0032,16.6500,28.0500,21.0000,26.7028,0.00,0.00,-17000.00,0.00,0,0,0,1615075267,0,0
11234,1001.4512,23.2000,98.6824,-0.0100,0.0090,1.0150,0.9800,-1.4700,-0.0700,-0.1484,0.0383,9.9647,-0.0043,0.0032,0.0053,17.5500,27.9000,20.4000,26.7028,0.00,0.00,-17000.00,0.00,0,0,0,1615075267,0,0
11258,1001.4392,23.1900,98.7829,-0.0100,0.0090,1.0160,0.9800,-1.4700,-0.0700,-0.0910,0.0766,9.9742,-0.0021,-0.0011,0.0032,16.3500,27.7500,22.8000,26.3674,0.00,0.00,-17000.00,0.00,0,0,0,1615075268,0,0
11283,1001.4253,23.2000,98.8998,-0.0100,0.0100,1.0150,0.9800,-1.4700,-0.0700,-0.1628,-0.0048,9.9072,0.0000,0.0011,0.0032,16.9500,28.2000,21.9000,26.8466,0.00,0.00,-17000.00,0.00,0,0,0,1615075268,0,0
11308,1001.4253,23.2000,98.8998,-0.0100,0.0090,1.0150,0.8400,-1.4700,-0.0700,-0.1053,0.0192,9.9407,-0.0043,0.0011,0.0032,16.5000,28.2000,21.4500,26.4632,0.00,0.00,-17000.00,0.00,0,0,0,1615075268,0,0
11333,1001.4302,23.2000,98.8588,-0.0090,0.0080,1.0150,0.9100,-1.4700,-0.1400,-0.1437,0.0670,10.0748,-0.0074,0.0032,0.0021,16.6500,27.0000,22.0500,26.7987,0.00,0.00,-17000.00,0.00,0,0,0,1615075268,0,0
11358,1001.4302,23.2000,98.8588,-0.0090,0.0090,1.0160,0.9100,-1.4700,-0.0700,-0.1053,0.0192,9.8881,-0.0011,0.0011,0.0021,17.5500,28.2000,23.2500,26.5590,0.00,0.00,-17000.00,0.00,0,0,0,1615075268,0,0
11383,1001.4146,23.2000,98.9901,-0.0100,0.0090,1.0150,0.9800,-1.4700,-0.0700,-0.1437,-0.0479,9.9311,0.0000,0.0000,0.0064,16.9500,28.2000,21.9000,26.5590,0.00,0.00,-17000.00,0.00,0,0,0,1615075268,0,0
11408,1001.4231,23.2000,98.9183,-0.0100,0.0090,1.0140,0.9800,-1.4700,-0.1400,-0.1724,0.0431,9.9359,-0.0021,0.0011,0.0043,17.4000,27.3000,21.3000,26.7987,0.00,0.00,-17000.00,0.00,0,0,0,1615075268,0,0
11433,1001.4231,23.2000,98.9183,-0.0100,0.0090,1.0150,0.9100,-1.4700,-0.0700,-0.1820,0.0622,9.9359,-0.0032,-0.0011,0.0043,16.0500,28.0500,21.7500,26.5590,0.00,0.00,-17000.00,0.00,0,0,0,1615075268,0,0
11458,1001.4109,23.2000,99.0209,-0.0100,0.0100,1.0150,0.9100,-1.4000,-0.0700,-0.1437,-0.0383,9.8928,-0.0085,0.0000,0.0043,16.3500,26.5500,22.3500,26.6549,0.00,0.00,-17000.00,0.00,0,0,0,1615075268,0,0
11483,1001.4109,23.2000,99.0209,-0.0100,0.0100,1.0140,0.9100,-1.4700,-0.1400,-0.1101,-0.0192,9.8881,-0.0074,-0.0011,0.0106,17.5500,27.1500,22.6500,26.5590,0.00,0.00,-17000.00,0.00,0,0,0,1615075268,0,0
11508,1001.3899,23.2000,99.1973,-0.0100,0.0090,1.0150,0.9100,-1.4700,-0.1400,-0.1628,0.0287,9.9695,-0.0011,0.0032,0.0053,16.2000,28.6500,22.2000,26.6549,0.00,0.00,-17000.00,0.00,0,0,0,1615075268,0,0
11533,1001.4392,23.2000,98.7829,-0.0090,0.0090,1.0150,0.9800,-1.5400,-0.0700,-0.1149,0.0479,9.9742,-0.0032,0.0000,0.0032,17.1000,27.0000,22.3500,26.6549,0.00,0.00,-17000.00,0.00,0,0,0,1615075268,0,0
11558,1001.4392,23.2000,98.7829,-0.0090,0.0090,1.0150,0.9800,-1.4000,-0.1400,-0.1341,0.0335,10.0269,0.0000,-0.0032,0.0053,17.1000,27.3000,22.3500,26.3674,0.00,0.00,-17000.00,0.00,0,0,0,1615075268,0,0
11583,1001.3779,23.2000,99.2979,-0.0090,0.0100,1.0150,0.9800,-1.4700,-0.0700,-0.0670,0.0287,9.9264,-0.0043,0.0000,0.0043,16.6500,27.7500,23.1000,26.8466,0.00,0.00,-17000.00,0.00,0,0,0,1615075268,0,0
11608,1001.3779,23.2000,99.2979,-0.0100,0.0090,1.0150,0.9800,-1.4700,-0.0700,-0.1149,0.0479,9.9264,-0.0011,-0.0011,0.0074,16.6500,28.8000,22.0500,26.5590,0.00,0.00,-17000.00,0.00,0,0,0,1615075268,0,0
11659,1001.4199,23.2000,98.9450,-0.0110,0.0090,1.0160,0.9100,-1.4700,-0.0700,-0.1197,0.0048,10.0173,-0.0053,-0.0011,0.0074,18.0000,27.7500,22.3500,26.6549,0.00,0.00,-17000.00,0.00,0,0,0,1615075268,0,0
11683,1001.4199,23.2000,98.9450,-0.0090,0.0080,1.0150,0.9100,-1.4700,-0.1400,-0.1963,0.0000,9.9168,0.0000,-0.0011,0.0021,16.5000,26.4000,22.9500,26.7028,0.00,0.00,-17000.00,0.00,0,0,0,1615075268,0,0
11711,1001.3979,23.2000,99.1296,-0.0090,0.0100,1.0140,0.9100,-1.4700,-0.1400,-0.1532,0.0192,9.9359,0.0011,0.0000,0.0106,16.9500,27.9000,20.8500,26.5590,0.00,0.00,-17000.00,0.00,0,0,0,1615075268,0,0
11736,1001.4080,23.2100,99.0455,-0.0090,0.0100,1.0150,0.9100,-1.4700,-0.1400,-0.1149,0.0239,9.9934,-0.0021,-0.0032,0.0053,18.1500,28.8000,21.7500,26.7028,0.00,0.00,-17000.00,0.00,0,0,0,1615075268,0,0
11761,1001.4080,23.2100,99.0455,-0.0090,0.0100,1.0150,0.9800,-1.4700,-0.1400,-0.1197,0.0096,9.9790,-0.0053,0.0032,0.0032,16.3500,27.7500,21.3000,26.5111,0.00,0.00,-17000.00,0.00,0,0,0,1615075268,0,0
11786,1001.4177,23.2000,98.9634,-0.0100,0.0100,1.0160,0.9800,-1.4700,-0.0700,-0.1053,-0.0335,9.9742,-0.0074,-0.0011,0.0085,16.9500,27.9000,21.9000,26.5111,0.00,0.00,-17000.00,0.00,0,0,0,1615075268,0,0
11811,1001.4177,23.2000,98.9634,-0.0100,0.0080,1.0150,0.9800,-1.4700,-0.1400,-0.1389,0.0048,9.9695,-0.0053,-0.0043,0.0074,17.8500,27.7500,22.3500,26.5111,0.00,0.00,-17000.00,0.00,0,0,0,1615075268,0,0
11836,1001.4370,23.2000,98.8014,-0.0110,0.0080,1.0150,0.9100,-1.5400,-0.0700,-0.1293,-0.0192,9.9455,-0.0032,-0.0021,0.0064,16.9500,27.9000,21.1500,26.6549,0.00,0.00,-17000.00,0.00,0,0,0,1615075268,0,0
11861,1001.4370,23.2000,98.8014,-0.0100,0.0090,1.0150,0.9800,-1.4700,-0.0700,-0.1532,-0.0048,9.9982,-0.0053,0.0032,0.0021,16.2000,28.2000,22.2000,26.6549,0.00,0.00,-17000.00,0.00,0,0,0,1615075268,0,0
11886,1001.4236,23.2000,98.9142,-0.0100,0.0090,1.0160,1.0500,-1.4700,-0.1400,-0.1006,-0.0335,9.9407,-0.0085,-0.0011,0.0053,16.3500,26.5500,21.7500,26.6549,0.00,0.00,-17000.00,0.00,0,0,0,1615075268,0,0
11911,1001.4236,23.2000,98.9142,-0.0090,0.0100,1.0150,0.9100,-1.5400,-0.1400,-0.1341,0.0287,9.9455,-0.0011,-0.0011,0.0032,17.4000,28.5000,22.3500,26.4632,0.00,0.00,-17000.00,0.00,0,0,0,1615075268,0,0
11936,1001.4268,23.2100,98.8875,-0.0100,0.0090,1.0150,0.9800,-1.4700,-0.1400,-0.1820,0.0670,9.9503,-0.0043,-0.0064,0.0053,17.2500,27.9000,21.1500,26.5590,0.00,0.00,-17000.00,0.00,0,0,0,1615075268,0,0
11961,1001.4268,23.2100,98.8875,-0.0090,0.0100,1.0160,0.9800,-1.4700,-0.1400,-0.0910,0.0718,9.9168,-0.0032,-0.0053,0.0053,17.1000,27.7500,22.8000,26.5590,0.00,0.00,-17000.00,0.00,0,0,0,1615075268,0,0
11986,1001.4026,23.2100,99.0906,-0.0100,0.0090,1.0150,0.8400,-1.4000,-0.0700,-0.1006,0.0239,9.9790,-0.0053,-0.0021,0.0053,17.2500,27.1500,22.2000,26.7987,0.00,0.00,-17000.00,0.00,0,0,0,1615075268,0,0
12011,1001.4026,23.2100,99.0906,-0.0100,0.0080,1.0150,0.9800,-1.4700,-0.1400,-0.1006,0.0479,9.9359,0.0000,0.0032,0.0085,16.9500,25.6500,21.1500,26.7028,0.00,0.00,-17000.00,0.00,0,0,0,1615075268,0,0
12036,1001.4021,23.2100,99.0947,-0.0090,0.0090,1.0150,0.9100,-1.4700,-0.0700,-0.1532,0.0192,9.9695,-0.0011,0.0021,0.0000,16.9500,27.4500,22.2000,26.5590,0.00,0.00,-17000.00,0.00,0,0,0,1615075268,0,0
12061,1001.4021,23.2100,99.0947,-0.0090,0.0100,1.0160,0.9800,-1.4700,-0.1400,-0.1245,0.0192,9.9503,-0.0011,0.0000,0.0053,17.8500,27.7500,22.0500,26.3674,0.00,0.00,-17000.00,0.00,0,0,0,1615075268,0,0
12086,1001.4043,23.2100,99.0763,-0.0090,0.0090,1.0150,0.9100,-1.5400,-0.0700,-0.1724,0.0239,9.9790,-0.0011,0.0000,0.0043,17.8500,26.2500,22.3500,26.5590,0.00,0.00,-17000.00,0.00,0,0,0,1615075268,0,0
12111,1001.4043,23.2100,99.0763,-0.0090,0.0090,1.0150,1.0500,-1.4700,-0.0700,-0.1389,-0.0096,10.0078,-0.0053,-0.0011,0.0021,16.9500,28.2000,21.9000,26.4632,0.00,0.00,-17000.00,0.00,0,0,0,1615075268,0,0
12136,1001.4250,23.2100,98.9019,-0.0100,0.0090,1.0160,0.9800,-1.4700,-0.1400,-0.1389,-0.0287,9.9599,-0.0064,-0.0011,0.0074,16.3500,27.0000,22.3500,26.5590,0.00,0.00,-17000.00,0.00,0,0,0,1615075268,0,0
12161,1001.4250,23.2100,98.9019,-0.0100,0.0090,1.0150,0.9800,-1.4700,-0.0700,-0.1197,0.0622,9.9838,-0.0011,0.0000,0.0064,16.5000,27.9000,22.6500,26.6549,0.00,0.00,-17000.00,0.00,0,0,0,1615075268,0,0
12186,1001.4165,23.2100,98.9737,-0.0090,0.0090,1.0150,0.9100,-1.4700,-0.0700,-0.1245,0.0527,9.9503,0.0000,-0.0011,0.0064,16.6500,28.5000,21.3000,26.8945,0.00,0.00,-17000.00,0.00,0,0,0,1615075268,0,0
12211,1001.3906,23.2100,99.1912,-0.0080,0.0080,1.0150,0.9100,-1.4700,-0.0700,-0.0958,0.0096,9.9599,0.0000,0.0021,0.0085,17.4000,28.0500,22.0500,26.4632,0.00,0.00,-17000.00,0.00,0,0,0,1615075268,0,0
12238,1001.3906,23.2100,99.1912,-0.0070,0.0090,1.0150,0.9800,-1.4000,-0.0700,-0.1293,0.0527,9.9072,-0.0011,0.0032,0.0117,16.6500,28.8000,21.7500,26.8466,0.00,0.00,-17000.00,0.00,0,0,0,1615075268,0,0
12263,1001.4026,23.2100,99.0906,-0.0090,0.0090,1.0160,0.9100,-1.4000,0.0000,-0.1484,0.0096,9.9551,-0.0011,0.0021,0.0043,17.8500,28.5000,21.7500,26.7987,0.00,0.00,-17000.00,0.00,0,0,0,1615075269,0,0
12288,1001.4026,23.2100,99.0906,-0.0100,0.0100,1.0150,0.9100,-1.4700,-0.0700,-0.1389,-0.0096,9.9742,-0.0053,-0.0011,0.0032,16.2000,27.4500,24.0000,26.5590,0.00,0.00,-17000.00,0.00,0,0,0,1615075269,0,0
12313,1001.4192,23.2100,98.9511,-0.0100,0.0100,1.0160,0.9100,-1.4700,-0.0700,-0.1389,0.0192,9.9934,-0.0043,0.0000,0.0085,16.5000,27.4500,21.9000,26.5590,0.00,0.00,-17000.00,0.00,0,0,0,1615075269,0,0
12338,1001.4421,23.2200,98.7583,-0.0100,0.0100,1.0150,0.9100,-1.4000,-0.0700,-0.1628,0.0335,9.9742,-0.0085,-0.0032,0.0053,16.5000,28.9500,22.6500,26.5590,0.00,0.00,-17000.00,0.00,0,0,0,1615075269,0,0
12363,1001.4421,23.2200,98.7583,-0.0100,0.0100,1.0150,0.9100,-1.4700,-0.0700,-0.1389,0.0287,9.9742,0.0032,0.0000,0.0021,17.2500,27.9000,21.1500,26.7987,0.00,0.00,-17000.00,0.00,0,0,0,1615075269,0,0
12388,1001.4165,23.2100,98.9737,-0.0100,0.0090,1.0160,0.9100,-1.4700,-0.1400,-0.0527,0.0144,9.9455,-0.0064,0.0043,0.0053,17.5500,28.9500,22.9500,26.5111,0.00,0.00,-17000.00,0.00,0,0,0,1615075269,0,0
12413,1001.4165,23.2100,98.9737,-0.0100,0.0100,1.0150,0.9800,-1.4700,-0.0700,-0.1532,-0.0048,9.8881,-0.0043,0.0043,0.0021,16.5000,27.9000,22.2000,26.6549,0.00,0.00,-17000.00,0.00,0,0,0,1615075269,0,0
12445,1001.4216,23.2200,98.9306,-0.0090,0.0100,1.0160,0.9800,-1.4700,-0.0700,-0.1245,-0.0096,9.9742,0.0043,0.0000,0.0064,17.8500,26.5500,22.0500,26.5111,0.00,0.00,-17000.00,0.00,0,0,0,1615075269,0,0
12470,1001.4216,23.2200,98.9306,-0.0080,0.0100,1.0150,0.9100,-1.4700,-0.0700,-0.1820,0.0383,9.9647,-0.0032,0.0021,0.0000,16.6500,27.7500,22.3500,26.7987,0.00,0.00,-17000.00,0.00,0,0,0,1615075269,0,0
12495,1001.4001,23.2100,99.1112,-0.0090,0.0080,1.0150,0.9800,-1.4700,-0.0700,-0.1437,0.0287,9.9551,0.0000,-0.0043,0.0053,17.2500,26.4000,21.4500,26.7028,0.00,0.00,-17000.00,0.00,0,0,0,1615075269,0,0
12520,1001.4001,23.2200,99.1112,-0.0090,0.0070,1.0150,0.9100,-1.5400,-0.1400,-0.1341,0.0048,9.9742,-0.0011,0.0021,0.0096,17.1000,27.3000,21.3000,26.6549,0.00,0.00,-17000.00,0.00,0,0,0,1615075269,0,0
12545,1001.4001,23.2200,99.1112,-0.0090,0.0060,1.0150,0.9100,-1.5400,-0.0700,-0.1149,0.0958,9.9647,-0.0032,-0.0043,0.0032,17.1000,27.3000,22.8000,26.8466,0.00,0.00,-17000.00,0.00,0,0,0,1615075269,0,0
12570,1001.4163,23.2200,98.9757,-0.0110,0.0110,1.0160,0.9800,-1.5400,0.0000,-0.1676,-0.0192,9.9790,0.0021,0.0021,0.0032,17.4000,27.3000,20.7000,26.8466,0.00,0.00,-17000.00,0.00,0,0,0,1615075269,0,0
12595,1001.4163,23.2200,98.9757,-0.0100,0.0120,1.0150,0.9100,-1.4700,-0.0700,-0.1245,0.0096,9.9359,0.0021,0.0011,0.0074,16.6500,27.3000,21.0000,26.6549,0.00,0.00,-17000.00,0.00,0,0,0,1615075269,0,0
12620,1001.4187,23.2200,98.9552,-0.0100,0.0120,1.0160,0.9100,-1.4000,-0.0700,-0.1628,0.0239,9.9407,-0.0043,-0.0032,0.0000,17.5500,27.1500,22.9500,26.5590,0.00,0.00,-17000.00,0.00,0,0,0,1615075269,0,0
12645,1001.3992,23.2100,99.1194,-0.0100,0.0080,1.0150,0.9100,-1.4700,-0.0700,-0.0958,0.0239,9.9790,-0.0032,0.0000,0.0053,16.2000,29.4000,20.4000,26.6549,0.00,0.00,-17000.00,0.00,0,0,0,1615075269,0,0
12670,1001.3992,23.2100,99.1194,-0.0090,0.0070,1.0150,0.9800,-1.4700,-0.0700,-0.0814,0.0622,9.9695,-0.0021,0.0074,0.0021,16.6500,28.5000,23.1000,26.4632,0.00,0.00,-17000.00,0.00,0,0,0,1615075269,0,0
12695,1001.4011,23.2100,99.1030,-0.0080,0.0070,1.0140,0.9800,-1.4700,-0.0700,-0.1676,0.0479,9.9264,0.0000,-0.0043,0.0053,18.0000,27.9000,22.9500,26.5590,0.00,0.00,-17000.00,0.00,0,0,0,1615075269,0,0
12720,1001.4011,23.2100,99.1030,-0.0080,0.0100,1.0150,0.9800,-1.4000,-0.0700,-0.1484,0.0479,9.9311,-0.0011,0.0000,0.0021,16.5000,27.1500,22.2000,26.7028,0.00,0.00,-17000.00,0.00,0,0,0,1615075269,0,0
12745,1001.4116,23.2200,99.0147,-0.0080,0.0110,1.0140,0.9800,-1.4700,-0.0700,-0.2203,0.0383,9.9599,-0.0085,-0.0021,0.0011,18.0000,26.7000,20.8500,26.7987,0.00,0.00,-17000.00,0.00,0,0,0,1615075269,0,0
12770,1001.4019,23.2200,99.0968,-0.0110,0.0100,1.0140,0.9100,-1.4700,-0.0700,-0.1341,-0.0192,9.9695,0.0021,-0.0021,0.0053,16.2000,27.9000,21.4500,26.8466,0.00,0.00,-17000.00,0.00,0,0,0,1615075269,0,0
12795,1001.4019,23.2200,99.0968,-0.0110,0.0100,1.0160,0.9100,-1.4700,-0.1400,-0.1437,-0.0335,9.9216,-0.0074,0.0021,0.0043,17.1000,28.0500,22.0500,26.5590,0.00,0.00,-17000.00,0.00,0,0,0,1615075269,0,0
12820,1001.4182,23.2100,98.9593,-0.0110,0.0090,1.0150,0.9100,-1.4700,-0.0700,-0.1389,-0.0383,9.9311,-0.0032,0.0000,0.0043,17.1000,27.3000,21.7500,26.7987,0.00,0.00,-17000.00,0.00,0,0,0,1615075269,0,0
12845,1001.4182,23.2100,98.9593,-0.0110,0.0080,1.0140,0.9100,-1.4700,-0.0700,-0.1867,0.0431,9.9455,-0.0053,0.0032,0.0117,17.2500,27.9000,21.4500,26.5111,0.00,0.00,-17000.00,0.00,0,0,0,1615075269,0,0
12870,1001.3936,23.2100,99.1666,-0.0100,0.0080,1.0150,0.9800,-1.5400,0.0000,-0.1341,0.0335,9.9647,-0.0021,-0.0011,0.0043,17.2500,27.4500,21.9000,26.5111,0.00,0.00,-17000.00,0.00,0,0,0,1615075269,0,0
12895,1001.3760,23.2100,99.3143,-0.0080,0.0100,1.0160,0.8400,-1.4700,-0.1400,-0.1293,-0.0048,9.9024,-0.0074,-0.0043,0.0074,16.0500,27.0000,22.3500,26.7987,0.00,0.00,-17000.00,0.00,0,0,0,1615075269,0,0
12920,1001.3760,23.2100,99.3143,-0.0080,0.0090,1.0120,0.7000,-1.7500,-0.1400,-0.1293,0.0192,9.9599,-0.0011,0.0021,0.0011,16.6500,26.5500,22.0500,26.5590,0.00,0.00,-17000.00,0.00,0,0,0,1615075269,0,0
12945,1001.4490,23.2100,98.7008,-0.0090,0.0100,1.0140,1.1200,-1.2600,-0.1400,-0.1532,0.0383,9.9551,-0.0043,0.0000,0.0053,17.1000,28.5000,21.0000,26.4632,0.00,0.00,-17000.00,0.00,0,0,0,1615075269,0,0
12970,1001.4490,23.2100,98.7008,-0.0100,0.0100,1.0150,0.9100,-1.5400,-0.0700,-0.1484,0.0287,9.9647,0.0021,-0.0011,0.0053,18.0000,27.9000,21.9000,26.5590,0.00,0.00,-17000.00,0.00,0,0,0,1615075269,0,0
12995,1001.4019,23.2100,99.0968,-0.0100,0.0110,1.0160,1.1200,-1.3300,-0.0700,-0.1389,0.0287,9.9216,0.0000,0.0000,0.0064,16.6500,28.5000,21.7500,26.5590,0.00,0.00,-17000.00,0.00,0,0,0,1615075269,0,0
13020,1001.4053,23.2100,99.0681,-0.0100,0.0080,1.0140,0.9100,-1.5400,-0.0700,-0.1293,0.0622,9.9647,-0.0032,0.0021,-0.0043,16.3500,28.5000,22.0500,26.7987,0.00,0.00,-17000.00,0.00,0,0,0,1615075269,0,0
13045,1001.4053,23.2100,99.0681,-0.0100,0.0080,1.0160,0.8400,-1.4700,-0.0700,-0.1628,0.0287,9.9647,-0.0011,0.0021,0.0021,18.4500,25.8000,21.7500,26.7028,0.00,0.00,-17000.00,0.00,0,0,0,1615075269,0,0
13070,1001.4214,23.2100,98.9327,-0.0090,0.0070,1.0150,0.8400,-1.5400,-0.1400,-0.1341,0.0000,9.9838,-0.0032,-0.0011,0.0043,18.0000,27.9000,21.4500,26.5111,0.00,0.00,-17000.00,0.00,0,0,0,1615075269,0,0
13095,1001.4214,23.2100,98.9327,-0.0100,0.0090,1.0160,0.9800,-1.4700,-0.1400,-0.1820,0.0048,9.9216,-0.0032,0.0000,0.0064,17.8500,28.5000,22.3500,26.6549,0.00,0.00,-17000.00,0.00,0,0,0,1615075269,0,0
13120,1001.4055,23.2100,99.0660,-0.0090,0.0100,1.0150,0.9100,-1.4700,-0.1400,-0.1437,0.0575,9.9455,-0.0053,0.0021,0.0043,16.9500,27.4500,21.9000,26.5111,0.00,0.00,-17000.00,0.00,0,0,0,1615075269,0,0
13145,1001.4094,23.2100,99.0332,-0.0090,0.0110,1.0160,0.9800,-1.4700,-0.1400,-0.1341,0.0287,9.9120,-0.0011,-0.0053,0.0074,16.6500,27.7500,22.0500,26.8466,0.00,0.00,-17000.00,0.00,0,0,0,1615075269,0,0
13170,1001.4094,23.2100,99.0332,-0.0100,0.0100,1.0150,0.8400,-1.4700,0.0000,-0.1197,0.0431,9.9359,0.0043,0.0053,0.0032,16.0500,27.0000,21.7500,26.6549,0.00,0.00,-17000.00,0.00,0,0,0,1615075269,0,0
13195,1001.4426,23.2100,98.7542,-0.0090,0.0100,1.0150,0.9800,-1.4000,-0.0700,-0.1389,0.0239,9.9695,-0.0021,0.0053,0.0117,16.5000,28.2000,21.4500,26.5590,0.00,0.00,-17000.00,0.00,0,0,0,1615075269,0,0
13220,1001.4426,23.2100,98.7542,-0.0100,0.0080,1.0160,0.9100,-1.4000,-0.0700,-0.1389,0.0239,9.9407,-0.0011,-0.0032,0.0085,17.8500,27.0000,21.0000,26.6549,0.00,0.00,-17000.00,0.00,0,0,0,1615075269,0,0
13245,1001.4109,23.2100,99.0209,-0.0090,0.0080,1.0150,0.9100,-1.4700,-0.0700,-0.1053,0.0287,9.9695,0.0011,0.0011,0.0053,17.4000,27.7500,22.0500,26.5590,0.00,0.00,-17000.00,0.00,0,0,0,1615075269,0,0
13270,1001.3982,23.2100,99.1276,-0.0090,0.0080,1.0160,0.9800,-1.5400,-0.0700,-0.0910,0.0575,9.9455,0.0000,-0.0043,0.0085,16.6500,27.3000,21.3000,26.5590,0.00,0.00,-17000.00,0.00,0,0,0,1615075270,0,0
13295,1001.3982,23.2100,99.1276,-0.0100,0.0100,1.0160,0.8400,-1.4700,-0.0700,-0.1580,0.0527,9.9695,0.0021,0.0032,0.0064,17.8500,27.7500,21.7500,26.5590,0.00,0.00,-17000.00,0.00,0,0,0,1615075270,0,0
13320,1001.3943,23.2100,99.1604,-0.0090,0.0100,1.0150,0.9100,-1.4700,-0.0700,-0.1676,-0.0096,9.9311,-0.0021,0.0011,0.0021,16.6500,28.0500,22.3500,26.5590,0.00,0.00,-17000.00,0.00,0,0,0,1615075270,0,0
13345,1001.3943,23.2100,99.1604,-0.0100,0.0100,1.0150,0.8400,-1.5400,-0.0700,-0.1628,0.0192,9.9359,-0.0011,-0.0011,-0.0021,16.6500,26.5500,22.3500,26.5590,0.00,0.00,-17000.00,0.00,0,0,0,1615075270,0,0
13370,1001.3809,23.2200,99.2732,-0.0090,0.0100,1.0150,0.9100,-1.4700,-0.0700,-0.1101,0.0718,9.9742,-0.0053,0.0000,0.0085,16.6500,27.7500,21.7500,26.3194,0.00,0.00,-17000.00,0.00,0,0,0,1615075270,0,0
13395,1001.3835,23.2100,99.2507,-0.0090,0.0100,1.0160,0.9100,-1.4700,-0.0700,-0.1053,0.0287,9.9886,-0.0043,0.0011,0.0032,18.0000,28.2000,22.6500,26.6549,0.00,0.00,-17000.00,0.00,0,0,0,1615075270,0,0
13420,1001.3835,23.2100,99.2507,-0.0090,0.0080,1.0150,0.9100,-1.4700,-0.0700,-0.1197,-0.0144,9.9455,-0.0011,-0.0011,0.0032,16.9500,28.2000,22.6500,26.5590,0.00,0.00,-17000.00,0.00,0,0,0,1615075270,0,0
13445,1001.4319,23.2200,98.8444,-0.0100,0.0090,1.0160,0.9800,-1.4000,-0.1400,-0.1197,0.0479,9.9742,0.0000,0.0032,0.0032,15.7500,27.4500,22.2000,26.5590,0.00,0.00,-17000.00,0.00,0,0,0,1615075270,0,0
13470,1001.4319,23.2200,98.8444,-0.0110,0.0080,1.0160,0.9800,-1.4700,-0.0700,-0.1724,0.0527,9.9551,-0.0043,0.0032,0.0074,16.2000,27.4500,22.2000,26.7028,0.00,0.00,-17000.00,0.00,0,0,0,1615075270,0,0
13495,1001.4167,23.2200,98.9716,-0.0120,0.0120,1.0160,0.9800,-1.4000,-0.0700,-0.1532,0.0096,9.9599,-0.0021,0.0011,0.0064,15.7500,27.9000,21.9000,26.4632,0.00,0.00,-17000.00,0.00,0,0,0,1615075270,0,0
13520,1001.4253,23.2200,98.8998,-0.0100,0.0130,1.0160,0.9800,-1.5400,-0.0700,-0.1245,0.0575,9.9742,0.0021,0.0011,-0.0011,15.7500,28.6500,23.7000,26.6549,0.00,0.00,-17000.00,0.00,0,0,0,1615075270,0,0
13545,1001.4253,23.2200,98.8998,-0.0090,0.0100,1.0160,0.9100,-1.4700,-0.0700,-0.0766,0.0048,9.9168,-0.0011,-0.0021,0.0032,17.4000,27.7500,21.3000,26.5590,0.00,0.00,-17000.00,0.00,0,0,0,1615075270,0,0
13570,1001.3940,23.2200,99.1625,-0.0080,0.0070,1.0150,0.9100,-1.4700,-0.1400,-0.0527,0.0718,9.9982,0.0021,-0.0074,0.0043,16.5000,27.9000,21.4500,26.6549,0.00,0.00,-17000.00,0.00,0,0,0,1615075270,0,0
13595,1001.3940,23.2200,99.1625,-0.0090,0.0060,1.0160,0.8400,-1.5400,-0.2100,-0.1484,0.0479,9.9359,-0.0085,0.0021,-0.0021,16.5000,28.6500,21.4500,26.5590,0.00,0.00,-17000.00,0.00,0,0,0,1615075270,0,0
13620,1001.4143,23.2300,98.9922,-0.0090,0.0080,1.0150,1.0500,-1.3300,-0.1400,-0.1101,0.0192,9.9742,-0.0011,-0.0011,0.0064,16.9500,28.2000,22.6500,26.7987,0.00,0.00,-17000.00,0.00,0,0,0,1615075270,0,0
13645,1001.4092,23.2200,99.0352,-0.0100,0.0100,1.0160,0.9800,-1.4700,-0.0700,-0.1389,0.0766,9.9599,-0.0043,0.0011,0.0096,16.9500,27.4500,22.9500,26.5590,0.00,0.00,-17000.00,0.00,0,0,0,1615075270,0,0
13670,1001.4092,23.2200,99.0352,-0.0120,0.0090,1.0160,0.9800,-1.3300,-0.0700,-0.1053,0.0192,9.9742,-0.0021,-0.0074,0.0043,16.6500,28.0500,21.7500,26.7987,0.00,0.00,-17000.00,0.00,0,0,0,1615075270,0,0
13697,1001.3936,23.2200,99.1666,-0.0110,0.0070,1.0150,0.9800,-1.4700,-0.0700,-0.0862,0.0527,9.9455,0.0000,-0.0011,0.0085,16.0500,27.3000,22.3500,26.6549,0.00,0.00,-17000.00,0.00,0,0,0,1615075270,0,0
13750,1001.3914,23.2300,99.1850,-0.0090,0.0110,1.0160,0.9100,-1.4700,-0.1400,-0.2298,-0.0239,10.0461,-0.0074,-0.0021,0.0011,17.1000,26.2500,21.3000,26.7987,0.00,0.00,-17000.00,0.00,0,0,0,1615075270,0,0
13774,1001.3914,23.2300,99.1850,-0.0080,0.0110,1.0160,0.9800,-1.4700,-0.1400,-0.1341,0.0575,9.8976,0.0021,0.0000,0.0043,17.5500,28.2000,22.6500,26.5590,0.00,0.00,-17000.00,0.00,0,0,0,1615075270,0,0
13799,1001.4153,23.2300,98.9840,-0.0070,0.0110,1.0160,0.8400,-1.5400,-0.2100,-0.1341,-0.0144,9.9216,-0.0032,0.0011,0.0064,16.0500,28.8000,22.0500,26.5590,0.00,0.00,-17000.00,0.00,0,0,0,1615075270,0,0
13824,1001.4153,23.2300,98.9840,-0.0110,0.0140,1.0140,0.9100,-1.4000,-0.1400,-0.1484,0.0383,9.9599,0.0074,-0.0032,0.0053,16.6500,27.3000,22.0500,26.7987,0.00,0.00,-17000.00,0.00,0,0,0,1615075270,0,0
13850,1001.4365,23.2300,98.8055,-0.0080,0.0070,1.0150,0.7700,-1.7500,0.0000,-0.1149,0.0383,10.0030,-0.0106,0.0000,0.0085,15.7500,27.4500,20.8500,26.7987,0.00,0.00,-17000.00,0.00,0,0,0,1615075270,0,0
13874,1001.4419,23.2200,98.7603,-0.0090,0.0050,1.0150,0.9100,-1.4700,-0.0700,-0.1676,0.0000,9.9359,-0.0053,-0.0032,0.0043,16.9500,27.1500,21.4500,26.5590,0.00,0.00,-17000.00,0.00,0,0,0,1615075270,0,0
13900,1001.4419,23.2200,98.7603,-0.0100,0.0060,1.0160,0.9800,-1.4000,-0.0700,-0.0958,0.0239,9.9886,0.0021,-0.0032,0.0043,17.4000,28.5000,22.0500,26.6549,0.00,0.00,-17000.00,0.00,0,0,0,1615075270,0,0
13924,1001.4058,23.2200,99.0640,-0.0100,0.0080,1.0160,0.9800,-1.4700,-0.0700,-0.1389,0.0287,9.9503,-0.0053,0.0053,0.0021,16.3500,27.7500,21.7500,26.7028,0.00,0.00,-17000.00,0.00,0,0,0,1615075270,0,0
13950,1001.4058,23.2200,99.0640,-0.0080,0.0110,1.0160,0.9800,-1.5400,-0.0700,-0.1341,0.0766,9.9551,-0.0032,-0.0011,0.0064,18.1500,29.2500,21.3000,26.7987,0.00,0.00,-17000.00,0.00,0,0,0,1615075270,0,0
13974,1001.3867,23.2300,99.2240,-0.0080,0.0110,1.0160,0.9100,-1.4000,-0.1400,-0.1245,0.0431,9.9455,-0.0064,-0.0021,0.0074,17.1000,28.5000,21.0000,26.5590,0.00,0.00,-17000.00,0.00,0,0,0,1615075270,0,0
13999,1001.3867,23.2300,99.2240,-0.0080,0.0100,1.0150,0.9100,-1.4700,-0.1400,-0.1197,0.0431,9.8976,-0.0032,-0.0043,-0.0011,17.1000,28.8000,21.3000,26.5590,0.00,0.00,-17000.00,0.00,0,0,0,1615075270,0,0
14024,1001.4097,23.2300,99.0311,-0.0090,0.0090,1.0150,0.9800,-1.4000,-0.0700,-0.1389,0.0048,9.9599,-0.0043,0.0032,0.0032,17.8500,28.8000,22.8000,26.7987,0.00,0.00,-17000.00,0.00,0,0,0,1615075270,0,0
14049,1001.4177,23.2300,98.9634,-0.0100,0.0080,1.0160,0.9800,-1.4000,-0.0700,-0.1197,0.0096,9.9647,0.0011,-0.0021,0.0053,16.2000,27.9000,21.1500,26.3674,0.00,0.00,-17000.00,0.00,0,0,0,1615075270,0,0
14074,1001.4177,23.2300,98.9634,-0.0110,0.0080,1.0160,0.9100,-1.4000,-0.0700,-0.1341,0.0718,9.9838,-0.0032,-0.0011,0.0000,16.2000,27.9000,21.1500,26.6549,0.00,0.00,-17000.00,0.00,0,0,0,1615075270,0,0
14099,1001.4060,23.2300,99.0619,-0.0120,0.0090,1.0150,0.9800,-1.4000,-0.0700,-0.1341,0.0192,9.9647,-0.0032,-0.0011,0.0043,16.0500,28.5000,22.0500,26.5111,0.00,0.00,-17000.00,0.00,0,0,0,1615075270,0,0
14124,1001.4060,23.2300,99.0619,-0.0090,0.0090,1.0160,0.9800,-1.4700,-0.0700,-0.0910,0.0383,9.9407,-0.0032,0.0000,0.0032,17.4000,28.0500,22.3500,26.5590,0.00,0.00,-17000.00,0.00,0,0,0,1615075270,0,0
14150,1001.4180,23.2300,98.9614,-0.0080,0.0090,1.0160,0.9800,-1.5400,-0.1400,-0.1245,0.0527,9.9695,-0.0053,-0.0053,0.0021,16.2000,26.7000,21.1500,26.2715,0.00,0.00,-17000.00,0.00,0,0,0,1615075270,0,0
14174,1001.4211,23.2300,98.9347,-0.0070,0.0080,1.0150,0.9100,-1.5400,-0.0700,-0.1484,0.0527,9.9120,-0.0053,0.0032,0.0043,16.9500,27.9000,21.1500,26.7028,0.00,0.00,-17000.00,0.00,0,0,0,1615075270,0,0
14199,1001.4211,23.2300,98.9347,-0.0080,0.0080,1.0150,0.9100,-1.4700,-0.0700,-0.1532,0.0575,9.9024,-0.0043,0.0032,0.0064,16.9500,27.4500,21.4500,26.5590,0.00,0.00,-17000.00,0.00,0,0,0,1615075270,0,0
14226,1001.3926,23.2300,99.1748,-0.0090,0.0080,1.0160,0.9100,-1.4700,-0.0700,-0.0910,-0.0239,9.9311,-0.0053,-0.0021,0.0043,16.6500,27.7500,22.0500,26.6549,0.00,0.00,-17000.00,0.00,0,0,0,1615075270,0,0
14251,1001.3884,23.2300,99.2096,-0.0110,0.0070,1.0150,0.9100,-1.4000,0.0000,-0.1580,0.0048,9.9599,-0.0011,-0.0021,0.0043,16.5000,27.4500,22.9500,26.7987,0.00,0.00,-17000.00,0.00,0,0,0,1615075271,0,0
14294,1001.3884,23.2300,99.2096,-0.0110,0.0110,1.0150,0.9800,-1.4700,-0.0700,-0.1580,0.0431,9.9551,0.0032,0.0053,0.0032,17.4000,26.5500,21.3000,26.5590,0.00,0.00,-17000.00,0.00,0,0,0,1615075271,0,0
14319,1001.4180,23.2300,98.9614,-0.0100,0.0110,1.0160,0.9100,-1.4700,-0.0700,-0.1915,0.0192,9.9647,-0.0021,-0.0032,0.0074,18.0000,27.1500,22.2000,26.7987,0.00,0.00,-17000.00,0.00,0,0,0,1615075271,0,0
14344,1001.4131,23.2400,99.0024,-0.0090,0.0100,1.0160,0.9100,-1.4000,-0.0700,-0.1532,0.0287,9.9024,-0.0053,-0.0011,0.0043,15.6000,27.0000,22.8000,26.5111,0.00,0.00,-17000.00,0.00,0,0,0,1615075271,0,0
14369,1001.4131,23.2400,99.0024,-0.0070,0.0090,1.0150,0.9100,-1.4000,-0.0700,-0.1484,0.0479,9.9455,-0.0053,-0.0011,0.0085,16.6500,28.8000,21.7500,26.7987,0.00,0.00,-17000.00,0.00,0,0,0,1615075271,0,0
14394,1001.3855,23.2300,99.2343,-0.0080,0.0080,1.0150,0.9100,-1.4700,-0.0700,-0.1867,0.0670,9.9886,-0.0106,0.0043,0.0053,16.5000,27.4500,22.2000,26.5590,0.00,0.00,-17000.00,0.00,0,0,0,1615075271,0,0
14419,1001.3855,23.2300,99.2343,-0.0090,0.0090,1.0160,0.9800,-1.4700,-0.0700,-0.1437,0.0575,9.9695,-0.0043,0.0000,0.0064,16.3500,27.7500,21.3000,26.7987,0.00,0.00,-17000.00,0.00,0,0,0,1615075271,0,0
14444,1001.4375,23.2300,98.7973,-0.0100,0.0090,1.0160,0.9100,-1.4000,0.0000,-0.1149,-0.0192,10.0078,-0.0032,-0.0032,0.0096,16.3500,28.0500,20.7000,26.3674,0.00,0.00,-17000.00,0.00,0,0,0,1615075271,0,0
14469,1001.4456,23.2400,98.7295,-0.0100,0.0090,1.0140,0.9800,-1.4000,0.0000,-0.1676,0.0479,9.9455,-0.0021,-0.0032,0.0043,16.3500,28.0500,22.0500,26.7987,0.00,0.00,-17000.00,0.00,0,0,0,1615075271,0,0
14494,1001.4456,23.2400,98.7295,-0.0100,0.0110,1.0150,0.9800,-1.4700,0.0000,-0.1389,0.0479,9.9790,-0.0074,0.0043,0.0064,17.2500,27.9000,21.9000,26.5111,0.00,0.00,-17000.00,0.00,0,0,0,1615075271,0,0
14519,1001.4355,23.2300,98.8137,-0.0100,0.0110,1.0160,1.0500,-1.4700,-0.0700,-0.1389,0.0096,9.9599,-0.0053,-0.0011,0.0053,16.0500,28.0500,23.1000,26.6549,0.00,0.00,-17000.00,0.00,0,0,0,1615075271,0,0
14544,1001.4355,23.2300,98.8137,-0.0100,0.0110,1.0160,0.9800,-1.5400,-0.1400,-0.1293,0.0048,9.9647,0.0011,-0.0011,0.0043,17.2500,25.6500,22.2000,26.5111,0.00,0.00,-17000.00,0.00,0,0,0,1615075271,0,0
14569,1001.4177,23.2400,98.9634,-0.0110,0.0100,1.0150,0.9800,-1.4700,-0.1400,-0.1532,-0.0048,9.9455,-0.0021,-0.0032,0.0021,16.2000,27.9000,21.9000,26.5590,0.00,0.00,-17000.00,0.00,0,0,0,1615075271,0,0
14594,1001.4028,23.2400,99.0886,-0.0100,0.0080,1.0160,0.9800,-1.5400,-0.1400,-0.0622,0.0000,9.9551,-0.0011,0.0021,0.0032,16.9500,28.2000,22.2000,26.7028,0.00,0.00,-17000.00,0.00,0,0,0,1615075271,0,0
14619,1001.4028,23.2400,99.0886,-0.0080,0.0080,1.0150,0.9800,-1.5400,-0.1400,-0.1389,0.0192,9.9742,-0.0021,-0.0032,0.0117,16.5000,28.9500,22.2000,26.8466,0.00,0.00,-17000.00,0.00,0,0,0,1615075271,0,0
14644,1001.4202,23.2300,98.9429,-0.0090,0.0090,1.0150,0.9800,-1.4700,-0.0700,-0.1341,0.0335,9.9407,0.0011,0.0011,0.0074,16.9500,26.7000,22.6500,26.5111,0.00,0.00,-17000.00,0.00,0,0,0,1615075271,0,0
14669,1001.4202,23.2300,98.9429,-0.0080,0.0100,1.0150,0.9800,-1.5400,-0.0700,-0.1628,0.0239,9.9551,-0.0032,0.0000,0.0053,15.6000,28.0500,22.0500,26.6549,0.00,0.00,-17000.00,0.00,0,0,0,1615075271,0,0
14694,1001.4026,23.2300,99.0906,-0.0090,0.0100,1.0160,0.9800,-1.5400,-0.0700,-0.1484,0.0144,9.9024,-0.0032,-0.0011,0.0043,15.3000,26.2500,21.7500,26.7987,0.00,0.00,-17000.00,0.00,0,0,0,1615075271,0,0
14719,1001.4124,23.2400,99.0086,-0.0100,0.0100,1.0150,0.9800,-1.4700,-0.0700,-0.1724,0.0622,9.9455,-0.0043,0.0021,0.0032,15.7500,27.4500,21.1500,26.5111,0.00,0.00,-17000.00,0.00,0,0,0,1615075271,0,0
14744,1001.4124,23.2400,99.0086,-0.0100,0.0090,1.0150,0.9100,-1.4700,-0.0700,-0.0814,-0.0144,9.9695,-0.0011,0.0021,0.0032,16.9500,27.4500,21.1500,26.8466,0.00,0.00,-17000.00,0.00,0,0,0,1615075271,0,0
14769,1001.3826,23.2400,99.2589,-0.0100,0.0080,1.0160,0.9800,-1.4000,-0.0700,-0.1197,-0.0144,9.9264,-0.0053,0.0011,0.0085,16.0500,28.8000,21.7500,26.7987,0.00,0.00,-17000.00,0.00,0,0,0,1615075271,0,0
14794,1001.3826,23.2400,99.2589,-0.0090,0.0080,1.0150,0.9100,-1.4700,-0.0700,-0.1389,-0.0144,9.9264,-0.0032,0.0000,0.0032,16.3500,27.0000,21.7500,26.7987,0.00,0.00,-17000.00,0.00,0,0,0,1615075271,0,0
14819,1001.4065,23.2400,99.0578,-0.0100,0.0090,1.0150,0.9800,-1.4700,-0.0700,-0.1197,-0.0096,9.9599,-0.0043,-0.0021,0.0032,17.2500,28.6500,22.6500,26.7987,0.00,0.00,-17000.00,0.00,0,0,0,1615075271,0,0
14844,1001.4458,23.2400,98.7275,-0.0100,0.0110,1.0160,0.9100,-1.5400,-0.0700,-0.1053,0.0575,10.0748,-0.0032,0.0043,0.0043,17.1000,28.0500,22.0500,26.7028,0.00,0.00,-17000.00,0.00,0,0,0,1615075271,0,0
14869,1001.4458,23.2400,98.7275,-0.0100,0.0100,1.0150,0.9100,-1.4700,-0.0700,-0.1724,-0.0096,9.9599,-0.0032,-0.0032,0.0064,16.6500,27.7500,22.8000,26.7987,0.00,0.00,-17000.00,0.00,0,0,0,1615075271,0,0
14894,1001.4133,23.2400,99.0004,-0.0100,0.0100,1.0140,0.9800,-1.4700,-0.0700,-0.1149,0.0287,9.9982,-0.0064,0.0000,0.0032,16.3500,26.5500,20.7000,26.4632,0.00,0.00,-17000.00,0.00,0,0,0,1615075271,0,0
14919,1001.4133,23.2400,99.0004,-0.0090,0.0090,1.0180,0.9800,-1.4000,-0.0700,-0.0958,0.0000,9.9311,-0.0074,-0.0053,0.0043,17.2500,28.6500,22.2000,26.7987,0.00,0.00,-17000.00,0.00,0,0,0,1615075271,0,0
14944,1001.3940,23.2300,99.1625,-0.0090,0.0080,1.0140,0.9100,-1.4000,-0.1400,-0.1053,0.0383,9.8928,0.0000,0.0011,0.0064,15.6000,27.7500,22.8000,26.7028,0.00,0.00,-17000.00,0.00,0,0,0,1615075271,0,0
14969,1001.3972,23.2400,99.1358,-0.0100,0.0090,1.0150,0.9100,-1.5400,-0.0700,-0.1484,-0.0144,10.0078,0.0000,-0.0011,0.0053,14.7000,28.2000,20.8500,26.7987,0.00,0.00,-17000.00,0.00,0,0,0,1615075271,0,0
14995,1001.3972,23.2400,99.1358,-0.0090,0.0090,1.0170,0.9800,-1.5400,-0.0700,-0.1149,0.0144,9.9264,-0.0032,-0.0011,0.0053,16.9500,27.9000,21.1500,26.8945,0.00,0.00,-17000.00,0.00,0,0,0,1615075271,0,0
15020,1001.4082,23.2400,99.0435,-0.0090,0.0100,1.0170,0.9100,-1.4700,-0.0700,-0.0862,0.0000,9.9359,-0.0011,-0.0011,0.0074,16.5000,27.9000,22.2000,26.5590,0.00,0.00,-17000.00,0.00,0,0,0,1615075271,0,0
15045,1001.4082,23.2400,99.0435,-0.0110,0.0090,1.0120,0.9100,-1.4000,-0.0700,-0.1197,0.0335,9.8066,-0.0032,-0.0021,0.0032,16.5000,27.4500,22.2000,26.8466,0.00,0.00,-17000.00,0.00,0,0,0,1615075271,0,0
15070,1001.4045,23.2400,99.0742,-0.0090,0.0090,1.0150,0.9100,-1.5400,-0.0700,-0.0622,-0.0144,9.7444,0.0011,-0.0021,0.0043,16.3500,28.0500,22.3500,26.5590,0.00,0.00,-17000.00,0.00,0,0,0,1615075271,0,0
15095,1001.4045,23.2400,99.0742,-0.0080,0.0100,1.0170,0.8400,-1.5400,-0.0700,-0.0335,0.0287,10.1083,-0.0021,0.0000,0.0043,15.1500,28.6500,23.7000,26.5590,0.00,0.00,-17000.00,0.00,0,0,0,1615075271,0,0
15120,1001.4163,23.2300,98.9757,-0.0090,0.0090,1.0160,0.9100,-1.4000,-0.0700,-0.2346,0.0335,9.9647,-0.0053,0.0021,0.0011,17.2500,27.1500,21.9000,26.3674,0.00,0.00,-17000.00,0.00,0,0,0,1615075271,0,0
15145,1001.4126,23.2400,99.0065,-0.0090,0.0090,1.0130,0.9100,-1.4000,-0.0700,-0.1053,0.0479,9.9407,-0.0021,0.0043,0.0053,15.6000,27.7500,22.0500,26.7987,0.00,0.00,-17000.00,0.00,0,0,0,1615075271,0,0
15170,1001.4126,23.2400,99.0065,-0.0090,0.0080,1.0160,0.9800,-1.4700,-0.0700,-0.1341,0.0192,9.9742,-0.0032,0.0000,0.0032,16.0500,27.3000,21.0000,26.3194,0.00,0.00,-17000.00,0.00,0,0,0,1615075271,0,0
15195,1001.4219,23.2400,98.9286,-0.0090,0.0090,1.0170,0.9800,-1.4700,-0.1400,-0.1197,0.0000,10.0317,-0.0053,0.0000,0.0053,16.3500,27.3000,21.0000,26.8466,0.00,0.00,-17000.00,0.00,0,0,0,1615075271,0,0
15220,1001.4219,23.2400,98.9286,-0.0110,0.0090,1.0160,0.9100,-1.3300,-0.0700,-0.1053,-0.0048,9.9886,-0.0032,-0.0032,0.0032,16.0500,26.5500,21.7500,26.6549,0.00,0.00,-17000.00,0.00,0,0,0,1615075271,0,0
15245,1001.4409,23.2400,98.7685,-0.0110,0.0090,1.0150,0.9100,-1.4700,-0.1400,-0.1389,0.0096,9.9407,-0.0011,-0.0011,0.0032,16.6500,27.7500,21.7500,26.7987,0.00,0.00,-17000.00,0.00,0,0,0,1615075272,0,0
15270,1001.4204,23.2400,98.9409,-0.0100,0.0100,1.0160,0.9800,-1.4700,-0.0700,-0.0958,0.0431,9.9455,-0.0021,-0.0032,0.0043,16.2000,27.1500,22.9500,26.3194,0.00,0.00,-17000.00,0.00,0,0,0,1615075272,0,0
15295,1001.4204,23.2400,98.9409,-0.0090,0.0090,1.0160,0.9100,-1.4000,-0.1400,-0.1389,0.0527,9.9024,0.0021,-0.0011,0.0053,17.4000,27.0000,21.7500,26.7028,0.00,0.00,-17000.00,0.00,0,0,0,1615075272,0,0
15320,1001.4033,23.2400,99.0845,-0.0100,0.0090,1.0150,0.9100,-1.4000,-0.0700,-0.1341,-0.0431,9.9216,-0.0011,0.0021,0.0053,16.6500,26.5500,22.0500,26.9904,0.00,0.00,-17000.00,0.00,0,0,0,1615075272,0,0
15345,1001.4033,23.2400,99.0845,-0.0090,0.0090,1.0150,0.9800,-1.4000,-0.0700,-0.1676,0.0335,9.9599,-0.0043,-0.0021,0.0043,16.0500,26.5500,21.0000,26.8466,0.00,0.00,-17000.00,0.00,0,0,0,1615075272,0,0
15370,1001.4163,23.2400,98.9757,-0.0080,0.0100,1.0160,0.9800,-1.4700,-0.0700,-0.1724,0.0862,9.9407,-0.0011,-0.0011,0.0043,17.2500,28.2000,22.6500,26.1277,0.00,0.00,-17000.00,0.00,0,0,0,1615075272,0,0
15395,1001.4062,23.2400,99.0599,-0.0100,0.0100,1.0160,0.9100,-1.4700,-0.1400,-0.1389,-0.0287,9.9024,-0.0021,0.0043,0.0000,16.0500,28.0500,21.0000,26.7987,0.00,0.00,-17000.00,0.00,0,0,0,1615075272,0,0
15420,1001.4062,23.2400,99.0599,-0.0100,0.0100,1.0140,0.9100,-1.4700,-0.0700,-0.1437,0.0287,9.8976,0.0043,-0.0032,0.0053,17.5500,27.4500,21.4500,26.5590,0.00,0.00,-17000.00,0.00,0,0,0,1615075272,0,0
15445,1001.4041,23.2400,99.0783,-0.0100,0.0100,1.0160,0.9800,-1.5400,-0.0700,-0.1484,0.0096,9.9886,-0.0064,0.0000,0.0064,16.5000,27.1500,22.6500,26.8945,0.00,0.00,-17000.00,0.00,0,0,0,1615075272,0,0
15470,1001.4041,23.2400,99.0783,-0.0100,0.0100,1.0170,0.9800,-1.5400,-0.1400,-0.1293,-0.0048,9.9647,-0.0043,0.0000,0.0064,17.1000,28.5000,22.8000,26.5111,0.00,0.00,-17000.00,0.00,0,0,0,1615075272,0,0
15495,1001.3945,23.2400,99.1584,-0.0100,0.0090,1.0160,0.9800,-1.4000,-0.1400,-0.0862,-0.0239,9.9647,-0.0053,-0.0021,0.0085,17.5500,27.4500,22.9500,26.2715,0.00,0.00,-17000.00,0.00,0,0,0,1615075272,0,0
15520,1001.4170,23.2400,98.9696,-0.0100,0.0090,1.0150,0.9800,-1.4700,-0.1400,-0.1245,0.0000,10.0317,-0.0021,0.0011,0.0032,17.1000,27.3000,21.3000,26.5590,0.00,0.00,-17000.00,0.00,0,0,0,1615075272,0,0
15545,1001.4170,23.2400,98.9696,-0.0090,0.0080,1.0150,0.9100,-1.4700,-0.1400,-0.1437,0.0431,10.0030,0.0000,-0.0043,0.0064,17.4000,29.5500,22.0500,26.7987,0.00,0.00,-17000.00,0.00,0,0,0,1615075272,0,0
15570,1001.4014,23.2500,99.1009,-0.0090,0.0090,1.0160,0.9100,-1.4700,-0.0700,-0.1676,0.0479,9.9503,-0.0053,-0.0032,0.0032,17.1000,27.7500,22.8000,26.8466,0.00,0.00,-17000.00,0.00,0,0,0,1615075272,0,0
15595,1001.4014,23.2500,99.1009,-0.0090,0.0090,1.0150,0.9100,-1.4000,-0.0700,-0.1245,0.0718,9.9934,-0.0074,-0.0021,0.0053,16.3500,28.0500,22.0500,26.6549,0.00,0.00,-17000.00,0.00,0,0,0,1615075272,0,0
15620,1001.4043,23.2500,99.0763,-0.0100,0.0080,1.0150,0.9100,-1.4700,-0.0700,-0.1676,0.0000,10.0078,0.0000,-0.0053,0.0043,16.5000,28.2000,22.9500,26.7987,0.00,0.00,-17000.00,0.00,0,0,0,1615075272,0,0
15645,1001.4214,23.2400,98.9327,-0.0100,0.0090,1.0160,1.0500,-1.4000,-0.0700,-0.1149,0.0000,9.8976,0.0011,-0.0011,0.0053,16.6500,28.0500,24.1500,26.6549,0.00,0.00,-17000.00,0.00,0,0,0,1615075272,0,0
15670,1001.4214,23.2400,98.9327,-0.0090,0.0090,1.0160,0.9800,-1.4700,-0.1400,-0.1772,-0.0192,9.9407,0.0000,-0.0043,0.0064,16.0500,28.0500,21.3000,26.8945,0.00,0.00,-17000.00,0.00,0,0,0,1615075272,0,0
15695,1001.4199,23.2400,98.9450,-0.0100,0.0090,1.0150,0.9100,-1.4700,-0.0700,-0.1532,0.0000,9.9024,0.0011,0.0032,0.0064,16.0500,28.0500,21.3000,26.5590,0.00,0.00,-17000.00,0.00,0,0,0,1615075272,0,0
15720,1001.4199,23.2400,98.9450,-0.0090,0.0100,1.0150,0.9800,-1.5400,-0.0700,-0.1580,0.0766,10.0030,-0.0021,-0.0011,0.0074,17.4000,28.8000,22.0500,26.6549,0.00,0.00,-17000.00,0.00,0,0,0,1615075272,0,0
15745,1001.4185,23.2500,98.9573,-0.0090,0.0100,1.0160,0.9100,-1.4700,-0.1400,-0.1149,0.0431,9.9455,-0.0032,-0.0053,0.0074,16.9500,28.2000,22.9500,26.5590,0.00,0.00,-17000.00,0.00,0,0,0,1615075272,0,0
15770,1001.3921,23.2400,99.1789,-0.0100,0.0090,1.0160,0.9800,-1.4700,-0.0700,-0.1532,-0.0096,9.9407,0.0011,-0.0011,0.0085,17.4000,27.7500,22.8000,26.6549,0.00,0.00,-17000.00,0.00,0,0,0,1615075272,0,0
15796,1001.3921,23.2400,99.1789,-0.0100,0.0090,1.0150,0.9800,-1.4700,-0.0700,-0.1293,0.0096,9.9934,-0.0011,0.0021,0.0032,17.2500,27.4500,20.4000,26.7987,0.00,0.00,-17000.00,0.00,0,0,0,1615075272,0,0
15850,1001.4116,23.2400,99.0147,-0.0100,0.0090,1.0150,0.9100,-1.4700,-0.1400,-0.1389,0.0383,10.0078,-0.0032,0.0053,0.0064,16.5000,28.9500,21.9000,26.7987,0.00,0.00,-17000.00,0.00,0,0,0,1615075272,0,0
15886,1001.4048,23.2500,99.0722,-0.0090,0.0090,1.0160,0.9800,-1.4700,-0.0700,-0.1149,0.0192,9.9742,0.0021,-0.0011,0.0064,16.9500,27.4500,20.8500,26.6549,0.00,0.00,-17000.00,0.00,0,0,0,1615075272,0,0
15915,1001.4048,23.2500,99.0722,-0.0090,0.0090,1.0150,0.9800,-1.4700,-0.1400,-0.0958,0.0239,9.9359,0.0000,-0.0011,0.0043,17.1000,29.2500,20.2500,26.5590,0.00,0.00,-17000.00,0.00,0,0,0,1615075272,0,0
15941,1001.4258,23.2500,98.8957,-0.0090,0.0090,1.0160,0.9100,-1.4700,-0.0700,-0.1484,0.0048,9.9838,-0.0096,-0.0021,0.0021,17.8500,28.5000,22.8000,26.8466,0.00,0.00,-17000.00,0.00,0,0,0,1615075272,0,0
15966,1001.4141,23.2500,98.9942,-0.0090,0.0100,1.0150,0.9100,-1.4700,-0.0700,-0.1293,0.0335,9.9695,0.0053,-0.0011,0.0085,15.4500,27.4500,21.9000,26.7987,0.00,0.00,-17000.00,0.00,0,0,0,1615075272,0,0
15991,1001.4141,23.2500,98.9942,-0.0100,0.0090,1.0160,0.9100,-1.4700,-0.0700,-0.1437,0.0479,9.9647,0.0021,0.0011,-0.0011,16.5000,27.4500,21.1500,26.8466,0.00,0.00,-17000.00,0.00,0,0,0,1615075272,0,0
16016,1001.3972,23.2400,99.1358,-0.0100,0.0090,1.0150,0.9800,-1.4700,-0.0700,-0.1101,0.0431,9.9503,-0.0032,-0.0032,0.0074,17.2500,27.9000,22.2000,26.8466,0.00,0.00,-17000.00,0.00,0,0,0,1615075272,0,0
16041,1001.3972,23.2400,99.1358,-0.0100,0.0100,1.0160,0.9800,-1.5400,-0.0700,-0.1580,0.0239,9.9695,-0.0043,0.0000,0.0021,17.8500,27.7500,22.0500,26.7987,0.00,0.00,-17000.00,0.00,0,0,0,1615075272,0,0
16066,1001.4136,23.2500,98.9983,-0.0100,0.0100,1.0150,0.9100,-1.5400,-0.0700,-0.0862,0.0096,9.9551,-0.0011,-0.0043,0.0043,15.6000,28.5000,22.8000,26.7987,0.00,0.00,-17000.00,0.00,0,0,0,1615075272,0,0
16091,1001.4556,23.2600,98.6454,-0.0100,0.0090,1.0160,0.9100,-1.4000,-0.0700,-0.1149,0.0144,9.9695,-0.0021,0.0000,0.0064,17.2500,26.7000,21.4500,26.7987,0.00,0.00,-17000.00,0.00,0,0,0,1615075272,0,0
16116,1001.4556,23.2600,98.6454,-0.0100,0.0090,1.0150,0.9100,-1.4700,-0.0700,-0.1484,0.0096,9.9695,-0.0074,0.0000,0.0085,16.5000,27.1500,22.2000,26.8945,0.00,0.00,-17000.00,0.00,0,0,0,1615075272,0,0
16146,1001.4521,23.2500,98.6742,-0.0090,0.0090,1.0150,0.9100,-1.4700,-0.1400,-0.1293,0.0431,9.9647,0.0000,-0.0021,-0.0011,16.9500,27.9000,21.9000,26.8466,0.00,0.00,-17000.00,0.00,0,0,0,1615075272,0,0
16170,1001.4521,23.2500,98.6742,-0.0100,0.0090,1.0150,0.9800,-1.5400,-0.0700,-0.1341,0.0718,9.9695,-0.0021,-0.0011,0.0053,16.6500,27.7500,22.3500,26.6549,0.00,0.00,-17000.00,0.00,0,0,0,1615075272,0,0
16195,1001.4292,23.2500,98.8670,-0.0100,0.0090,1.0160,0.9100,-1.4700,-0.0700,-0.1676,0.0383,10.0078,-0.0032,0.0043,0.0053,17.4000,28.8000,21.7500,26.8466,0.00,0.00,-17000.00,0.00,0,0,0,1615075272,0,0
16223,1001.4292,23.2500,98.8670,-0.0090,0.0090,1.0160,0.9100,-1.4700,-0.0700,-0.0910,0.1053,9.9647,-0.0021,0.0000,0.0074,18.1500,28.0500,22.3500,26.7987,0.00,0.00,-17000.00,0.00,0,0,0,1615075272,0,0
16248,1001.4531,23.2500,98.6659,-0.0090,0.0090,1.0150,0.9800,-1.4700,-0.0700,-0.1245,0.0096,9.9647,-0.0064,-0.0053,0.0043,16.0500,28.0500,21.7500,26.5111,0.00,0.00,-17000.00,0.00,0,0,0,1615075273,0,0
16273,1001.4277,23.2600,98.8793,-0.0080,0.0100,1.0160,0.9100,-1.4700,-0.0700,-0.1628,0.0766,9.9742,-0.0064,0.0000,0.0043,16.3500,28.0500,23.1000,26.5111,0.00,0.00,-17000.00,0.00,0,0,0,1615075273,0,0
16298,1001.4277,23.2600,98.8793,-0.0100,0.0090,1.0150,0.9800,-1.4700,-0.0700,-0.1341,0.0383,10.0078,-0.0064,0.0000,0.0074,16.2000,28.2000,21.9000,26.6549,0.00,0.00,-17000.00,0.00,0,0,0,1615075273,0,0
16323,1001.3965,23.2600,99.1419,-0.0100,0.0100,1.0160,0.9100,-1.4700,-0.0700,-0.2538,0.0718,10.4148,-0.0021,0.0021,0.0021,18.0000,28.6500,21.1500,26.6549,0.00,0.00,-17000.00,0.00,0,0,0,1615075273,0,0
16348,1001.3965,23.2600,99.1419,-0.0100,0.0090,1.0150,0.9800,-1.4700,-0.0700,-0.1389,0.0287,10.0652,-0.0043,0.0000,0.0074,16.0500,27.3000,22.3500,26.6549,0.00,0.00,-17000.00,0.00,0,0,0,1615075273,0,0
16373,1001.3958,23.2600,99.1481,-0.0080,0.0100,1.0170,0.9100,-1.4700,-0.0700,-0.0622,0.0431,9.8306,-0.0074,-0.0011,0.0074,18.3000,27.4500,21.4500,26.7987,0.00,0.00,-17000.00,0.00,0,0,0,1615075273,0,0
16398,1001.3970,23.2500,99.1378,-0.0110,0.0100,1.0160,0.9100,-1.4700,-0.1400,-0.1389,-0.0527,9.8689,-0.0032,-0.0011,0.0074,15.6000,28.5000,23.1000,26.7987,0.00,0.00,-17000.00,0.00,0,0,0,1615075273,0,0
16423,1001.3970,23.2500,99.1378,-0.0100,0.0090,1.0140,0.9800,-1.4000,-0.0700,-0.1772,-0.0431,9.8210,-0.0011,-0.0043,0.0043,16.5000,27.4500,21.1500,26.7987,0.00,0.00,-17000.00,0.00,0,0,0,1615075273,0,0
16448,1001.4136,23.2600,98.9983,-0.0100,0.0090,1.0160,0.9800,-1.4700,-0.0700,-0.1580,0.0335,10.2232,0.0032,-0.0011,0.0096,17.1000,27.7500,20.7000,26.7987,0.00,0.00,-17000.00,0.00,0,0,0,1615075273,0,0
16473,1001.4136,23.2600,98.9983,-0.0110,0.0080,1.0160,0.9800,-1.4000,-0.0700,-0.1724,-0.0144,9.7779,-0.0043,0.0021,0.0085,17.4000,27.7500,21.3000,26.5590,0.00,0.00,-17000.00,0.00,0,0,0,1615075273,0,0
16498,1001.4324,23.2600,98.8403,-0.0100,0.0090,1.0130,0.9100,-1.5400,-0.0700,-0.0766,0.1006,10.1370,-0.0064,0.0043,0.0117,16.3500,28.0500,21.7500,26.5111,0.00,0.00,-17000.00,0.00,0,0,0,1615075273,0,0
16523,1001.3870,23.2600,99.2220,-0.0080,0.0090,1.0160,1.0500,-1.4700,-0.0700,-0.1532,-0.0431,10.0269,-0.0085,-0.0011,0.0053,16.2000,27.1500,21.1500,26.8466,0.00,0.00,-17000.00,0.00,0,0,0,1615075273,0,0
